TargetType,Run,Stimulus,RunTrialNumber_Block,StimType,BlockType,Stim_CRESP,Block,nBack.thisRepN,nBack.thisTrialN,nBack.thisN,nBack.thisIndex,Stim.RESP,Stim.RT,Stim.CRESP,CueFix.FinishTime,Cue2Back.StartTime,Cue2Back.FinishTime,Cue2Back.OffsetTime,CueFix.StartTime,CueFix.OnsetTime,CueFix.OffsetTime,Cue2Back.Duration,Cue2Back.OnsetTime,CueFix.Duration,Stim.ACC,Stim.StartTime,Stim.FinishTime,Stim.Duration,Stim.OnsetTime,Fix.StartTime,Stim.RTTime,Stim.OffsetTime,Fix.OnsetTime,Fix.Duration,Fix.OffsetTime,Fix.FinishTime,CueTarget.OnsetTime,CueTarget.OffsetTime,CueTarget.StartTime,CueTarget.FinishTime,CueTarget.Duration,Fix15sec.OnsetTime,Fix15sec.Duration,Fix15sec.FinishTime,Fix15sec.StartTime,Fix15sec.OffsetTime,Allowed,DataFile.Basename,Group,Target,FontStyle,RunNumber,Handedness,NARGUID,SUBID,triggercode,SessionDate,Version,SessionTime,RuntimeCapabilities,Clock.Information,date,RuntimeVersion,SessionStart,ExperimentName,TrialsPerRun[Session],Debugging,Run,ExperimentVersion,ConsecNonResp[Session],TotalRespGreater200[Session],Nontarget,StudioVersion,Session,RuntimeVersionExpected,ConsecRTLess200[Session],Goggles,StimuliDir,Time Point,Main.RefreshRate,Subject,
"",All,"","",Faces,Cue2Back,"",1.0,0,0,0,0,,0,"",46028,46028,48527,48527,45517,45517,46028,2500,46028,500,,,,,,,,,,,,,,,,,,,,,,,"['1', 'num_1', 'left', '2', 'num_2', 'right']",Emo_Nback_20180527_v1-ABCD1234,1,1,Verdana,1,Right,ABCD1234,0,"['5', '7', '^', 'num_5', 'num_7', '=']",08/09/2018,1,16:20:53,Professional,0,2018-08-09_162053,2.0.10.356,,Emo_Nback_20180527,160,False,All,1.0.0.1180,0,0,"['2', 'num_2', 'right']",2.0.10.252,MRI,2.0.10.356,0,False,Stimuli/,Year 2,59.9955943482,1,
nonlure,All,23M_HO.bmp,2,PosFace,2-Back,No Match,1.0,0,1,1,1,,0,No Match,,,,,,,,,,,0,48536,50528,2000,48536,50528,0,50528,50528,500,51028,51028,,,,,,,,,,,"['1', 'num_1', 'left', '2', 'num_2', 'right']",Emo_Nback_20180527_v1-ABCD1234,1,1,Verdana,1,Right,ABCD1234,0,"['5', '7', '^', 'num_5', 'num_7', '=']",08/09/2018,1,16:20:53,Professional,0,2018-08-09_162053,2.0.10.356,,Emo_Nback_20180527,160,False,All,1.0.0.1180,0,0,"['2', 'num_2', 'right']",2.0.10.252,MRI,2.0.10.356,0,False,Stimuli/,Year 2,59.9955943482,1,
nonlure,All,12F_HO.bmp,3,PosFace,2-Back,No Match,1.0,0,2,2,2,,0,No Match,,,,,,,,,,,0,51037,53028,2000,51038,53028,0,53028,53029,500,53528,53528,,,,,,,,,,,"['1', 'num_1', 'left', '2', 'num_2', 'right']",Emo_Nback_20180527_v1-ABCD1234,1,1,Verdana,1,Right,ABCD1234,0,"['5', '7', '^', 'num_5', 'num_7', '=']",08/09/2018,1,16:20:53,Professional,0,2018-08-09_162053,2.0.10.356,,Emo_Nback_20180527,160,False,All,1.0.0.1180,0,0,"['2', 'num_2', 'right']",2.0.10.252,MRI,2.0.10.356,0,False,Stimuli/,Year 2,59.9955943482,1,
nonlure,All,AF02_HO.bmp,4,PosFace,2-Back,No Match,1.0,0,3,3,3,,0,No Match,,,,,,,,,,,0,53538,55528,2000,53539,55528,0,55528,55528,500,56029,56029,,,,,,,,,,,"['1', 'num_1', 'left', '2', 'num_2', 'right']",Emo_Nback_20180527_v1-ABCD1234,1,1,Verdana,1,Right,ABCD1234,0,"['5', '7', '^', 'num_5', 'num_7', '=']",08/09/2018,1,16:20:53,Professional,0,2018-08-09_162053,2.0.10.356,,Emo_Nback_20180527,160,False,All,1.0.0.1180,0,0,"['2', 'num_2', 'right']",2.0.10.252,MRI,2.0.10.356,0,False,Stimuli/,Year 2,59.9955943482,1,
target,All,12F_HO.bmp,5,PosFace,2-Back,Match,1.0,0,4,4,4,,0,Match,,,,,,,,,,,0,56034,58029,2000,56034,58029,0,58029,58029,500,58529,58529,,,,,,,,,,,"['1', 'num_1', 'left', '2', 'num_2', 'right']",Emo_Nback_20180527_v1-ABCD1234,1,1,Verdana,1,Right,ABCD1234,0,"['5', '7', '^', 'num_5', 'num_7', '=']",08/09/2018,1,16:20:53,Professional,0,2018-08-09_162053,2.0.10.356,,Emo_Nback_20180527,160,False,All,1.0.0.1180,0,0,"['2', 'num_2', 'right']",2.0.10.252,MRI,2.0.10.356,0,False,Stimuli/,Year 2,59.9955943482,1,
nonlure,All,WM011_HO.bmp,6,PosFace,2-Back,No Match,1.0,0,5,5,5,,0,No Match,,,,,,,,,,,0,58538,60529,2000,58538,60529,0,60529,60529,500,61029,61029,,,,,,,,,,,"['1', 'num_1', 'left', '2', 'num_2', 'right']",Emo_Nback_20180527_v1-ABCD1234,1,1,Verdana,1,Right,ABCD1234,0,"['5', '7', '^', 'num_5', 'num_7', '=']",08/09/2018,1,16:20:53,Professional,0,2018-08-09_162053,2.0.10.356,,Emo_Nback_20180527,160,False,All,1.0.0.1180,0,0,"['2', 'num_2', 'right']",2.0.10.252,MRI,2.0.10.356,0,False,Stimuli/,Year 2,59.9955943482,1,
nonlure,All,HM04_HO.bmp,7,PosFace,2-Back,No Match,1.0,0,6,6,6,,0,No Match,,,,,,,,,,,0,61037,63030,2000,61037,63030,0,63030,63030,500,63530,63530,,,,,,,,,,,"['1', 'num_1', 'left', '2', 'num_2', 'right']",Emo_Nback_20180527_v1-ABCD1234,1,1,Verdana,1,Right,ABCD1234,0,"['5', '7', '^', 'num_5', 'num_7', '=']",08/09/2018,1,16:20:53,Professional,0,2018-08-09_162053,2.0.10.356,,Emo_Nback_20180527,160,False,All,1.0.0.1180,0,0,"['2', 'num_2', 'right']",2.0.10.252,MRI,2.0.10.356,0,False,Stimuli/,Year 2,59.9955943482,1,
lure,All,AF02_HO.bmp,8,PosFace,2-Back,No Match,1.0,0,7,7,7,,0,No Match,,,,,,,,,,,0,63535,65529,2000,63536,65529,0,65529,65530,500,66030,66030,,,,,,,,,,,"['1', 'num_1', 'left', '2', 'num_2', 'right']",Emo_Nback_20180527_v1-ABCD1234,1,1,Verdana,1,Right,ABCD1234,0,"['5', '7', '^', 'num_5', 'num_7', '=']",08/09/2018,1,16:20:53,Professional,0,2018-08-09_162053,2.0.10.356,,Emo_Nback_20180527,160,False,All,1.0.0.1180,0,0,"['2', 'num_2', 'right']",2.0.10.252,MRI,2.0.10.356,0,False,Stimuli/,Year 2,59.9955943482,1,
nonlure,All,BF037_HO.bmp,9,PosFace,2-Back,No Match,1.0,0,8,8,8,,0,No Match,,,,,,,,,,,0,66039,68014,2000,66039,68014,0,68013,68014,500,68514,68514,,,,,,,,,,,"['1', 'num_1', 'left', '2', 'num_2', 'right']",Emo_Nback_20180527_v1-ABCD1234,1,1,Verdana,1,Right,ABCD1234,0,"['5', '7', '^', 'num_5', 'num_7', '=']",08/09/2018,1,16:20:53,Professional,0,2018-08-09_162053,2.0.10.356,,Emo_Nback_20180527,160,False,All,1.0.0.1180,0,0,"['2', 'num_2', 'right']",2.0.10.252,MRI,2.0.10.356,0,False,Stimuli/,Year 2,59.9955943482,1,
lure,All,WM011_HO.bmp,10,PosFace,2-Back,No Match,1.0,0,9,9,9,,0,No Match,,,,,,,,,,,0,68518,70514,2000,68518,70514,0,70513,70514,500,71014,71014,,,,,,,,,,,"['1', 'num_1', 'left', '2', 'num_2', 'right']",Emo_Nback_20180527_v1-ABCD1234,1,1,Verdana,1,Right,ABCD1234,0,"['5', '7', '^', 'num_5', 'num_7', '=']",08/09/2018,1,16:20:53,Professional,0,2018-08-09_162053,2.0.10.356,,Emo_Nback_20180527,160,False,All,1.0.0.1180,0,0,"['2', 'num_2', 'right']",2.0.10.252,MRI,2.0.10.356,0,False,Stimuli/,Year 2,59.9955943482,1,
target,All,BF037_HO.bmp,11,PosFace,2-Back,Match,1.0,0,10,10,10,,0,Match,,,,,,,,,,,0,71019,73014,2000,71020,73014,0,73014,73014,500,73514,73514,,,,,,,,,,,"['1', 'num_1', 'left', '2', 'num_2', 'right']",Emo_Nback_20180527_v1-ABCD1234,1,1,Verdana,1,Right,ABCD1234,0,"['5', '7', '^', 'num_5', 'num_7', '=']",08/09/2018,1,16:20:53,Professional,0,2018-08-09_162053,2.0.10.356,,Emo_Nback_20180527,160,False,All,1.0.0.1180,0,0,"['2', 'num_2', 'right']",2.0.10.252,MRI,2.0.10.356,0,False,Stimuli/,Year 2,59.9955943482,1,
target,All,AF218_NC.bmp,None,Faces,Cue0Back,,2.0,0,11,11,11,,0,,74015,,,,73525,73525,74015,,,500,,,,,,,,,,,,,74015,76514,74015,76514,2500,,,,,,"['1', 'num_1', 'left', '2', 'num_2', 'right']",Emo_Nback_20180527_v1-ABCD1234,1,1,Verdana,1,Right,ABCD1234,0,"['5', '7', '^', 'num_5', 'num_7', '=']",08/09/2018,1,16:20:53,Professional,0,2018-08-09_162053,2.0.10.356,,Emo_Nback_20180527,160,False,All,1.0.0.1180,0,0,"['2', 'num_2', 'right']",2.0.10.252,MRI,2.0.10.356,0,False,Stimuli/,Year 2,59.9955943482,1,
nonlure,All,LF206_NC.bmp,12,NeutFace,0-Back,No Match,2.0,0,12,12,12,,0,No Match,,,,,,,,,,,0,76524,78515,2000,76524,78515,0,78515,78515,500,79015,79015,,,,,,,,,,,"['1', 'num_1', 'left', '2', 'num_2', 'right']",Emo_Nback_20180527_v1-ABCD1234,1,1,Verdana,1,Right,ABCD1234,0,"['5', '7', '^', 'num_5', 'num_7', '=']",08/09/2018,1,16:20:53,Professional,0,2018-08-09_162053,2.0.10.356,,Emo_Nback_20180527,160,False,All,1.0.0.1180,0,0,"['2', 'num_2', 'right']",2.0.10.252,MRI,2.0.10.356,0,False,Stimuli/,Year 2,59.9955943482,1,
target,All,AF218_NC.bmp,13,NeutFace,0-Back,Match,2.0,0,13,13,13,,0,Match,,,,,,,,,,,0,79021,81015,2000,79021,81015,0,81015,81015,500,81515,81515,,,,,,,,,,,"['1', 'num_1', 'left', '2', 'num_2', 'right']",Emo_Nback_20180527_v1-ABCD1234,1,1,Verdana,1,Right,ABCD1234,0,"['5', '7', '^', 'num_5', 'num_7', '=']",08/09/2018,1,16:20:53,Professional,0,2018-08-09_162053,2.0.10.356,,Emo_Nback_20180527,160,False,All,1.0.0.1180,0,0,"['2', 'num_2', 'right']",2.0.10.252,MRI,2.0.10.356,0,False,Stimuli/,Year 2,59.9955943482,1,
nonlure,All,42M_NC.bmp,14,NeutFace,0-Back,No Match,2.0,0,14,14,14,,0,No Match,,,,,,,,,,,0,81524,83516,2000,81525,83516,0,83516,83516,500,84016,84016,,,,,,,,,,,"['1', 'num_1', 'left', '2', 'num_2', 'right']",Emo_Nback_20180527_v1-ABCD1234,1,1,Verdana,1,Right,ABCD1234,0,"['5', '7', '^', 'num_5', 'num_7', '=']",08/09/2018,1,16:20:53,Professional,0,2018-08-09_162053,2.0.10.356,,Emo_Nback_20180527,160,False,All,1.0.0.1180,0,0,"['2', 'num_2', 'right']",2.0.10.252,MRI,2.0.10.356,0,False,Stimuli/,Year 2,59.9955943482,1,
nonlure,All,BM09_NC.bmp,15,NeutFace,0-Back,No Match,2.0,0,15,15,15,,0,No Match,,,,,,,,,,,0,84026,86017,2000,84027,86017,0,86017,86017,500,86516,86516,,,,,,,,,,,"['1', 'num_1', 'left', '2', 'num_2', 'right']",Emo_Nback_20180527_v1-ABCD1234,1,1,Verdana,1,Right,ABCD1234,0,"['5', '7', '^', 'num_5', 'num_7', '=']",08/09/2018,1,16:20:53,Professional,0,2018-08-09_162053,2.0.10.356,,Emo_Nback_20180527,160,False,All,1.0.0.1180,0,0,"['2', 'num_2', 'right']",2.0.10.252,MRI,2.0.10.356,0,False,Stimuli/,Year 2,59.9955943482,1,
lure,All,BM09_NC.bmp,16,NeutFace,0-Back,No Match,2.0,0,16,16,16,,0,No Match,,,,,,,,,,,0,86522,88516,2000,86522,88516,0,88516,88516,500,89016,89016,,,,,,,,,,,"['1', 'num_1', 'left', '2', 'num_2', 'right']",Emo_Nback_20180527_v1-ABCD1234,1,1,Verdana,1,Right,ABCD1234,0,"['5', '7', '^', 'num_5', 'num_7', '=']",08/09/2018,1,16:20:53,Professional,0,2018-08-09_162053,2.0.10.356,,Emo_Nback_20180527,160,False,All,1.0.0.1180,0,0,"['2', 'num_2', 'right']",2.0.10.252,MRI,2.0.10.356,0,False,Stimuli/,Year 2,59.9955943482,1,
target,All,AF218_NC.bmp,17,NeutFace,0-Back,Match,2.0,0,17,17,17,,0,Match,,,,,,,,,,,0,89022,91016,2000,89022,91016,0,91016,91016,500,91517,91517,,,,,,,,,,,"['1', 'num_1', 'left', '2', 'num_2', 'right']",Emo_Nback_20180527_v1-ABCD1234,1,1,Verdana,1,Right,ABCD1234,0,"['5', '7', '^', 'num_5', 'num_7', '=']",08/09/2018,1,16:20:53,Professional,0,2018-08-09_162053,2.0.10.356,,Emo_Nback_20180527,160,False,All,1.0.0.1180,0,0,"['2', 'num_2', 'right']",2.0.10.252,MRI,2.0.10.356,0,False,Stimuli/,Year 2,59.9955943482,1,
nonlure,All,7F_NC.bmp,18,NeutFace,0-Back,No Match,2.0,0,18,18,18,,0,No Match,,,,,,,,,,,0,91526,93517,2000,91527,93517,0,93517,93517,500,94017,94017,,,,,,,,,,,"['1', 'num_1', 'left', '2', 'num_2', 'right']",Emo_Nback_20180527_v1-ABCD1234,1,1,Verdana,1,Right,ABCD1234,0,"['5', '7', '^', 'num_5', 'num_7', '=']",08/09/2018,1,16:20:53,Professional,0,2018-08-09_162053,2.0.10.356,,Emo_Nback_20180527,160,False,All,1.0.0.1180,0,0,"['2', 'num_2', 'right']",2.0.10.252,MRI,2.0.10.356,0,False,Stimuli/,Year 2,59.9955943482,1,
lure,All,7F_NC.bmp,19,NeutFace,0-Back,No Match,2.0,0,19,19,19,,0,No Match,,,,,,,,,,,0,94020,96017,2000,94021,96017,0,96017,96017,500,96517,96517,,,,,,,,,,,"['1', 'num_1', 'left', '2', 'num_2', 'right']",Emo_Nback_20180527_v1-ABCD1234,1,1,Verdana,1,Right,ABCD1234,0,"['5', '7', '^', 'num_5', 'num_7', '=']",08/09/2018,1,16:20:53,Professional,0,2018-08-09_162053,2.0.10.356,,Emo_Nback_20180527,160,False,All,1.0.0.1180,0,0,"['2', 'num_2', 'right']",2.0.10.252,MRI,2.0.10.356,0,False,Stimuli/,Year 2,59.9955943482,1,
lure,All,42M_NC.bmp,20,NeutFace,0-Back,No Match,2.0,0,20,20,20,,0,No Match,,,,,,,,,,,0,96523,98518,2000,96523,98518,0,98518,98518,500,99018,99018,,,,,,,,,,,"['1', 'num_1', 'left', '2', 'num_2', 'right']",Emo_Nback_20180527_v1-ABCD1234,1,1,Verdana,1,Right,ABCD1234,0,"['5', '7', '^', 'num_5', 'num_7', '=']",08/09/2018,1,16:20:53,Professional,0,2018-08-09_162053,2.0.10.356,,Emo_Nback_20180527,160,False,All,1.0.0.1180,0,0,"['2', 'num_2', 'right']",2.0.10.252,MRI,2.0.10.356,0,False,Stimuli/,Year 2,59.9955943482,1,
nonlure,All,LM207_NC.bmp,21,NeutFace,0-Back,No Match,2.0,0,21,21,21,,0,No Match,,,,,,,,,,,0,99027,101018,2000,99027,101018,0,101018,101018,500,101518,101518,,,,,,,,,,,"['1', 'num_1', 'left', '2', 'num_2', 'right']",Emo_Nback_20180527_v1-ABCD1234,1,1,Verdana,1,Right,ABCD1234,0,"['5', '7', '^', 'num_5', 'num_7', '=']",08/09/2018,1,16:20:53,Professional,0,2018-08-09_162053,2.0.10.356,,Emo_Nback_20180527,160,False,All,1.0.0.1180,0,0,"['2', 'num_2', 'right']",2.0.10.252,MRI,2.0.10.356,0,False,Stimuli/,Year 2,59.9955943482,1,
None,All,None,None,None,Fix15secPROC,,None,0,22,22,22,,0,,,,,,,,,,,,,,,,,,,,,,,,,,,,,101521,15000,116521,101521,116520,"['1', 'num_1', 'left', '2', 'num_2', 'right']",Emo_Nback_20180527_v1-ABCD1234,1,1,Verdana,1,Right,ABCD1234,0,"['5', '7', '^', 'num_5', 'num_7', '=']",08/09/2018,1,16:20:53,Professional,0,2018-08-09_162053,2.0.10.356,,Emo_Nback_20180527,160,False,All,1.0.0.1180,0,0,"['2', 'num_2', 'right']",2.0.10.252,MRI,2.0.10.356,0,False,Stimuli/,Year 2,59.9955943482,1,
None,All,None,None,Faces,Cue2Back,,3.0,0,23,23,23,,0,,117021,117021,119521,119521,116527,116527,117020,2500,117021,500,,,,,,,,,,,,,,,,,,,,,,,"['1', 'num_1', 'left', '2', 'num_2', 'right']",Emo_Nback_20180527_v1-ABCD1234,1,1,Verdana,1,Right,ABCD1234,0,"['5', '7', '^', 'num_5', 'num_7', '=']",08/09/2018,1,16:20:53,Professional,0,2018-08-09_162053,2.0.10.356,,Emo_Nback_20180527,160,False,All,1.0.0.1180,0,0,"['2', 'num_2', 'right']",2.0.10.252,MRI,2.0.10.356,0,False,Stimuli/,Year 2,59.9955943482,1,
nonlure,All,17F_FO.bmp,22,NegFace,2-Back,No Match,3.0,0,24,24,24,,0,No Match,,,,,,,,,,,0,119529,121521,2000,119530,121521,0,121521,121521,500,122021,122021,,,,,,,,,,,"['1', 'num_1', 'left', '2', 'num_2', 'right']",Emo_Nback_20180527_v1-ABCD1234,1,1,Verdana,1,Right,ABCD1234,0,"['5', '7', '^', 'num_5', 'num_7', '=']",08/09/2018,1,16:20:53,Professional,0,2018-08-09_162053,2.0.10.356,,Emo_Nback_20180527,160,False,All,1.0.0.1180,0,0,"['2', 'num_2', 'right']",2.0.10.252,MRI,2.0.10.356,0,False,Stimuli/,Year 2,59.9955943482,1,
nonlure,All,HM03_FO.bmp,23,NegFace,2-Back,No Match,3.0,0,25,25,25,,0,No Match,,,,,,,,,,,0,122031,124022,2000,122031,124022,0,124022,124022,500,124521,124521,,,,,,,,,,,"['1', 'num_1', 'left', '2', 'num_2', 'right']",Emo_Nback_20180527_v1-ABCD1234,1,1,Verdana,1,Right,ABCD1234,0,"['5', '7', '^', 'num_5', 'num_7', '=']",08/09/2018,1,16:20:53,Professional,0,2018-08-09_162053,2.0.10.356,,Emo_Nback_20180527,160,False,All,1.0.0.1180,0,0,"['2', 'num_2', 'right']",2.0.10.252,MRI,2.0.10.356,0,False,Stimuli/,Year 2,59.9955943482,1,
nonlure,All,BM045_FO.bmp,24,NegFace,2-Back,No Match,3.0,0,26,26,26,,0,No Match,,,,,,,,,,,0,124532,126521,2000,124532,126521,0,126521,126521,500,127021,127022,,,,,,,,,,,"['1', 'num_1', 'left', '2', 'num_2', 'right']",Emo_Nback_20180527_v1-ABCD1234,1,1,Verdana,1,Right,ABCD1234,0,"['5', '7', '^', 'num_5', 'num_7', '=']",08/09/2018,1,16:20:53,Professional,0,2018-08-09_162053,2.0.10.356,,Emo_Nback_20180527,160,False,All,1.0.0.1180,0,0,"['2', 'num_2', 'right']",2.0.10.252,MRI,2.0.10.356,0,False,Stimuli/,Year 2,59.9955943482,1,
target,All,HM03_FO.bmp,25,NegFace,2-Back,Match,3.0,0,27,27,27,,0,Match,,,,,,,,,,,0,127027,129022,2000,127027,129022,0,129022,129022,500,129522,129522,,,,,,,,,,,"['1', 'num_1', 'left', '2', 'num_2', 'right']",Emo_Nback_20180527_v1-ABCD1234,1,1,Verdana,1,Right,ABCD1234,0,"['5', '7', '^', 'num_5', 'num_7', '=']",08/09/2018,1,16:20:53,Professional,0,2018-08-09_162053,2.0.10.356,,Emo_Nback_20180527,160,False,All,1.0.0.1180,0,0,"['2', 'num_2', 'right']",2.0.10.252,MRI,2.0.10.356,0,False,Stimuli/,Year 2,59.9955943482,1,
lure,All,17F_FO.bmp,26,NegFace,2-Back,No Match,3.0,0,28,28,28,,0,No Match,,,,,,,,,,,0,129528,131523,2000,129528,131523,0,131522,131523,500,132022,132022,,,,,,,,,,,"['1', 'num_1', 'left', '2', 'num_2', 'right']",Emo_Nback_20180527_v1-ABCD1234,1,1,Verdana,1,Right,ABCD1234,0,"['5', '7', '^', 'num_5', 'num_7', '=']",08/09/2018,1,16:20:53,Professional,0,2018-08-09_162053,2.0.10.356,,Emo_Nback_20180527,160,False,All,1.0.0.1180,0,0,"['2', 'num_2', 'right']",2.0.10.252,MRI,2.0.10.356,0,False,Stimuli/,Year 2,59.9955943482,1,
lure,All,BM045_FO.bmp,27,NegFace,2-Back,No Match,3.0,0,29,29,29,,0,No Match,,,,,,,,,,,0,132028,134023,2000,132028,134023,0,134023,134023,500,134522,134522,,,,,,,,,,,"['1', 'num_1', 'left', '2', 'num_2', 'right']",Emo_Nback_20180527_v1-ABCD1234,1,1,Verdana,1,Right,ABCD1234,0,"['5', '7', '^', 'num_5', 'num_7', '=']",08/09/2018,1,16:20:53,Professional,0,2018-08-09_162053,2.0.10.356,,Emo_Nback_20180527,160,False,All,1.0.0.1180,0,0,"['2', 'num_2', 'right']",2.0.10.252,MRI,2.0.10.356,0,False,Stimuli/,Year 2,59.9955943482,1,
nonlure,All,9F_FO.bmp,28,NegFace,2-Back,No Match,3.0,0,30,30,30,,0,No Match,,,,,,,,,,,0,134531,136523,2000,134531,136523,0,136523,136523,500,137023,137023,,,,,,,,,,,"['1', 'num_1', 'left', '2', 'num_2', 'right']",Emo_Nback_20180527_v1-ABCD1234,1,1,Verdana,1,Right,ABCD1234,0,"['5', '7', '^', 'num_5', 'num_7', '=']",08/09/2018,1,16:20:53,Professional,0,2018-08-09_162053,2.0.10.356,,Emo_Nback_20180527,160,False,All,1.0.0.1180,0,0,"['2', 'num_2', 'right']",2.0.10.252,MRI,2.0.10.356,0,False,Stimuli/,Year 2,59.9955943482,1,
nonlure,All,WM004_FO.bmp,29,NegFace,2-Back,No Match,3.0,0,31,31,31,,0,No Match,,,,,,,,,,,0,137032,139024,2000,137032,139024,0,139024,139024,500,139523,139523,,,,,,,,,,,"['1', 'num_1', 'left', '2', 'num_2', 'right']",Emo_Nback_20180527_v1-ABCD1234,1,1,Verdana,1,Right,ABCD1234,0,"['5', '7', '^', 'num_5', 'num_7', '=']",08/09/2018,1,16:20:53,Professional,0,2018-08-09_162053,2.0.10.356,,Emo_Nback_20180527,160,False,All,1.0.0.1180,0,0,"['2', 'num_2', 'right']",2.0.10.252,MRI,2.0.10.356,0,False,Stimuli/,Year 2,59.9955943482,1,
target,All,9F_FO.bmp,30,NegFace,2-Back,Match,3.0,0,32,32,32,,0,Match,,,,,,,,,,,0,139528,141524,2000,139529,141524,0,141523,141524,500,142023,142023,,,,,,,,,,,"['1', 'num_1', 'left', '2', 'num_2', 'right']",Emo_Nback_20180527_v1-ABCD1234,1,1,Verdana,1,Right,ABCD1234,0,"['5', '7', '^', 'num_5', 'num_7', '=']",08/09/2018,1,16:20:53,Professional,0,2018-08-09_162053,2.0.10.356,,Emo_Nback_20180527,160,False,All,1.0.0.1180,0,0,"['2', 'num_2', 'right']",2.0.10.252,MRI,2.0.10.356,0,False,Stimuli/,Year 2,59.9955943482,1,
nonlure,All,BF06_FO.bmp,31,NegFace,2-Back,No Match,3.0,0,33,33,33,,0,No Match,,,,,,,,,,,0,142033,144024,2000,142033,144024,0,144024,144024,500,144524,144524,,,,,,,,,,,"['1', 'num_1', 'left', '2', 'num_2', 'right']",Emo_Nback_20180527_v1-ABCD1234,1,1,Verdana,1,Right,ABCD1234,0,"['5', '7', '^', 'num_5', 'num_7', '=']",08/09/2018,1,16:20:53,Professional,0,2018-08-09_162053,2.0.10.356,,Emo_Nback_20180527,160,False,All,1.0.0.1180,0,0,"['2', 'num_2', 'right']",2.0.10.252,MRI,2.0.10.356,0,False,Stimuli/,Year 2,59.9955943482,1,
target,All,34M_HO.bmp,None,Faces,Cue0Back,,4.0,0,34,34,34,,0,,145024,,,,144532,144532,145024,,,500,,,,,,,,,,,,,145025,147525,145024,147525,2500,,,,,,"['1', 'num_1', 'left', '2', 'num_2', 'right']",Emo_Nback_20180527_v1-ABCD1234,1,1,Verdana,1,Right,ABCD1234,0,"['5', '7', '^', 'num_5', 'num_7', '=']",08/09/2018,1,16:20:53,Professional,0,2018-08-09_162053,2.0.10.356,,Emo_Nback_20180527,160,False,All,1.0.0.1180,0,0,"['2', 'num_2', 'right']",2.0.10.252,MRI,2.0.10.356,0,False,Stimuli/,Year 2,59.9955943482,1,
target,All,34M_HO.bmp,32,PosFace,0-Back,Match,4.0,0,35,35,35,,0,Match,,,,,,,,,,,0,147530,149525,2000,147530,149525,0,149525,149525,500,150025,150025,,,,,,,,,,,"['1', 'num_1', 'left', '2', 'num_2', 'right']",Emo_Nback_20180527_v1-ABCD1234,1,1,Verdana,1,Right,ABCD1234,0,"['5', '7', '^', 'num_5', 'num_7', '=']",08/09/2018,1,16:20:53,Professional,0,2018-08-09_162053,2.0.10.356,,Emo_Nback_20180527,160,False,All,1.0.0.1180,0,0,"['2', 'num_2', 'right']",2.0.10.252,MRI,2.0.10.356,0,False,Stimuli/,Year 2,59.9955943482,1,
nonlure,All,BM08_HO.bmp,33,PosFace,0-Back,No Match,4.0,0,36,36,36,,0,No Match,,,,,,,,,,,0,150033,152025,2000,150034,152025,0,152025,152025,500,152525,152525,,,,,,,,,,,"['1', 'num_1', 'left', '2', 'num_2', 'right']",Emo_Nback_20180527_v1-ABCD1234,1,1,Verdana,1,Right,ABCD1234,0,"['5', '7', '^', 'num_5', 'num_7', '=']",08/09/2018,1,16:20:53,Professional,0,2018-08-09_162053,2.0.10.356,,Emo_Nback_20180527,160,False,All,1.0.0.1180,0,0,"['2', 'num_2', 'right']",2.0.10.252,MRI,2.0.10.356,0,False,Stimuli/,Year 2,59.9955943482,1,
nonlure,All,HF04_HO.bmp,34,PosFace,0-Back,No Match,4.0,0,37,37,37,,0,No Match,,,,,,,,,,,0,152534,154525,2000,152534,154525,0,154525,154525,500,155025,155025,,,,,,,,,,,"['1', 'num_1', 'left', '2', 'num_2', 'right']",Emo_Nback_20180527_v1-ABCD1234,1,1,Verdana,1,Right,ABCD1234,0,"['5', '7', '^', 'num_5', 'num_7', '=']",08/09/2018,1,16:20:53,Professional,0,2018-08-09_162053,2.0.10.356,,Emo_Nback_20180527,160,False,All,1.0.0.1180,0,0,"['2', 'num_2', 'right']",2.0.10.252,MRI,2.0.10.356,0,False,Stimuli/,Year 2,59.9955943482,1,
nonlure,All,BF002_HO.bmp,35,PosFace,0-Back,No Match,4.0,0,38,38,38,,0,No Match,,,,,,,,,,,0,155034,157026,2000,155034,157026,0,157026,157026,500,157525,157525,,,,,,,,,,,"['1', 'num_1', 'left', '2', 'num_2', 'right']",Emo_Nback_20180527_v1-ABCD1234,1,1,Verdana,1,Right,ABCD1234,0,"['5', '7', '^', 'num_5', 'num_7', '=']",08/09/2018,1,16:20:53,Professional,0,2018-08-09_162053,2.0.10.356,,Emo_Nback_20180527,160,False,All,1.0.0.1180,0,0,"['2', 'num_2', 'right']",2.0.10.252,MRI,2.0.10.356,0,False,Stimuli/,Year 2,59.9955943482,1,
lure,All,BM08_HO.bmp,36,PosFace,0-Back,No Match,4.0,0,39,39,39,,0,No Match,,,,,,,,,,,0,157531,159526,2000,157531,159526,0,159526,159526,500,160026,160026,,,,,,,,,,,"['1', 'num_1', 'left', '2', 'num_2', 'right']",Emo_Nback_20180527_v1-ABCD1234,1,1,Verdana,1,Right,ABCD1234,0,"['5', '7', '^', 'num_5', 'num_7', '=']",08/09/2018,1,16:20:53,Professional,0,2018-08-09_162053,2.0.10.356,,Emo_Nback_20180527,160,False,All,1.0.0.1180,0,0,"['2', 'num_2', 'right']",2.0.10.252,MRI,2.0.10.356,0,False,Stimuli/,Year 2,59.9955943482,1,
nonlure,All,45M_HO.bmp,37,PosFace,0-Back,No Match,4.0,0,40,40,40,,0,No Match,,,,,,,,,,,0,160035,162027,2000,160036,162027,0,162027,162027,500,162526,162526,,,,,,,,,,,"['1', 'num_1', 'left', '2', 'num_2', 'right']",Emo_Nback_20180527_v1-ABCD1234,1,1,Verdana,1,Right,ABCD1234,0,"['5', '7', '^', 'num_5', 'num_7', '=']",08/09/2018,1,16:20:53,Professional,0,2018-08-09_162053,2.0.10.356,,Emo_Nback_20180527,160,False,All,1.0.0.1180,0,0,"['2', 'num_2', 'right']",2.0.10.252,MRI,2.0.10.356,0,False,Stimuli/,Year 2,59.9955943482,1,
lure,All,45M_HO.bmp,38,PosFace,0-Back,No Match,4.0,0,41,41,41,,0,No Match,,,,,,,,,,,0,162531,164527,2000,162532,164527,0,164527,164527,500,165027,165027,,,,,,,,,,,"['1', 'num_1', 'left', '2', 'num_2', 'right']",Emo_Nback_20180527_v1-ABCD1234,1,1,Verdana,1,Right,ABCD1234,0,"['5', '7', '^', 'num_5', 'num_7', '=']",08/09/2018,1,16:20:53,Professional,0,2018-08-09_162053,2.0.10.356,,Emo_Nback_20180527,160,False,All,1.0.0.1180,0,0,"['2', 'num_2', 'right']",2.0.10.252,MRI,2.0.10.356,0,False,Stimuli/,Year 2,59.9955943482,1,
lure,All,BF002_HO.bmp,39,PosFace,0-Back,No Match,4.0,0,42,42,42,,0,No Match,,,,,,,,,,,0,165032,167027,2000,165032,167027,0,167027,167027,500,167527,167527,,,,,,,,,,,"['1', 'num_1', 'left', '2', 'num_2', 'right']",Emo_Nback_20180527_v1-ABCD1234,1,1,Verdana,1,Right,ABCD1234,0,"['5', '7', '^', 'num_5', 'num_7', '=']",08/09/2018,1,16:20:53,Professional,0,2018-08-09_162053,2.0.10.356,,Emo_Nback_20180527,160,False,All,1.0.0.1180,0,0,"['2', 'num_2', 'right']",2.0.10.252,MRI,2.0.10.356,0,False,Stimuli/,Year 2,59.9955943482,1,
target,All,34M_HO.bmp,40,PosFace,0-Back,Match,4.0,0,43,43,43,,0,Match,,,,,,,,,,,0,167532,169528,2000,167532,169528,0,169528,169528,500,170027,170027,,,,,,,,,,,"['1', 'num_1', 'left', '2', 'num_2', 'right']",Emo_Nback_20180527_v1-ABCD1234,1,1,Verdana,1,Right,ABCD1234,0,"['5', '7', '^', 'num_5', 'num_7', '=']",08/09/2018,1,16:20:53,Professional,0,2018-08-09_162053,2.0.10.356,,Emo_Nback_20180527,160,False,All,1.0.0.1180,0,0,"['2', 'num_2', 'right']",2.0.10.252,MRI,2.0.10.356,0,False,Stimuli/,Year 2,59.9955943482,1,
nonlure,All,WF07_HO.bmp,41,PosFace,0-Back,No Match,4.0,0,44,44,44,,0,No Match,,,,,,,,,,,0,170037,172028,2000,170038,172028,0,172028,172028,500,172528,172528,,,,,,,,,,,"['1', 'num_1', 'left', '2', 'num_2', 'right']",Emo_Nback_20180527_v1-ABCD1234,1,1,Verdana,1,Right,ABCD1234,0,"['5', '7', '^', 'num_5', 'num_7', '=']",08/09/2018,1,16:20:53,Professional,0,2018-08-09_162053,2.0.10.356,,Emo_Nback_20180527,160,False,All,1.0.0.1180,0,0,"['2', 'num_2', 'right']",2.0.10.252,MRI,2.0.10.356,0,False,Stimuli/,Year 2,59.9955943482,1,
None,All,None,None,None,Fix15secPROC,,None,0,45,45,45,,0,,,,,,,,,,,,,,,,,,,,,,,,,,,,,172530,15000,187513,172530,187513,"['1', 'num_1', 'left', '2', 'num_2', 'right']",Emo_Nback_20180527_v1-ABCD1234,1,1,Verdana,1,Right,ABCD1234,0,"['5', '7', '^', 'num_5', 'num_7', '=']",08/09/2018,1,16:20:53,Professional,0,2018-08-09_162053,2.0.10.356,,Emo_Nback_20180527,160,False,All,1.0.0.1180,0,0,"['2', 'num_2', 'right']",2.0.10.252,MRI,2.0.10.356,0,False,Stimuli/,Year 2,59.9955943482,1,
target,All,PL_001_92012.bmp,42,Place,Cue0Back,,5.0,0,46,46,46,,0,,188013,,,,187524,187524,188013,,,500,,,,,,,,,,,,,188014,190529,188013,190529,2500,,,,,,"['1', 'num_1', 'left', '2', 'num_2', 'right']",Emo_Nback_20180527_v1-ABCD1234,1,1,Verdana,1,Right,ABCD1234,0,"['5', '7', '^', 'num_5', 'num_7', '=']",08/09/2018,1,16:20:53,Professional,0,2018-08-09_162053,2.0.10.356,,Emo_Nback_20180527,160,False,All,1.0.0.1180,0,0,"['2', 'num_2', 'right']",2.0.10.252,MRI,2.0.10.356,0,False,Stimuli/,Year 2,59.9955943482,1,
nonlure,All,PL_003_92016.bmp,43,Place,0-Back,No Match,5.0,0,47,47,47,,0,No Match,,,,,,,,,,,0,190537,192514,2000,190538,192514,0,192514,192514,500,193014,193014,,,,,,,,,,,"['1', 'num_1', 'left', '2', 'num_2', 'right']",Emo_Nback_20180527_v1-ABCD1234,1,1,Verdana,1,Right,ABCD1234,0,"['5', '7', '^', 'num_5', 'num_7', '=']",08/09/2018,1,16:20:53,Professional,0,2018-08-09_162053,2.0.10.356,,Emo_Nback_20180527,160,False,All,1.0.0.1180,0,0,"['2', 'num_2', 'right']",2.0.10.252,MRI,2.0.10.356,0,False,Stimuli/,Year 2,59.9955943482,1,
lure,All,PL_003_92016.bmp,44,Place,0-Back,No Match,5.0,0,48,48,48,,0,No Match,,,,,,,,,,,0,193019,195014,2000,193019,195014,0,195014,195014,500,195514,195514,,,,,,,,,,,"['1', 'num_1', 'left', '2', 'num_2', 'right']",Emo_Nback_20180527_v1-ABCD1234,1,1,Verdana,1,Right,ABCD1234,0,"['5', '7', '^', 'num_5', 'num_7', '=']",08/09/2018,1,16:20:53,Professional,0,2018-08-09_162053,2.0.10.356,,Emo_Nback_20180527,160,False,All,1.0.0.1180,0,0,"['2', 'num_2', 'right']",2.0.10.252,MRI,2.0.10.356,0,False,Stimuli/,Year 2,59.9955943482,1,
nonlure,All,PL_006_92025.bmp,45,Place,0-Back,No Match,5.0,0,49,49,49,,0,No Match,,,,,,,,,,,0,195524,197514,2000,195525,197514,0,197514,197514,500,198014,198015,,,,,,,,,,,"['1', 'num_1', 'left', '2', 'num_2', 'right']",Emo_Nback_20180527_v1-ABCD1234,1,1,Verdana,1,Right,ABCD1234,0,"['5', '7', '^', 'num_5', 'num_7', '=']",08/09/2018,1,16:20:53,Professional,0,2018-08-09_162053,2.0.10.356,,Emo_Nback_20180527,160,False,All,1.0.0.1180,0,0,"['2', 'num_2', 'right']",2.0.10.252,MRI,2.0.10.356,0,False,Stimuli/,Year 2,59.9955943482,1,
target,All,PL_001_92012.bmp,46,Place,0-Back,Match,5.0,0,50,50,50,,0,Match,,,,,,,,,,,0,198020,200014,2000,198020,200014,0,200014,200014,500,200515,200515,,,,,,,,,,,"['1', 'num_1', 'left', '2', 'num_2', 'right']",Emo_Nback_20180527_v1-ABCD1234,1,1,Verdana,1,Right,ABCD1234,0,"['5', '7', '^', 'num_5', 'num_7', '=']",08/09/2018,1,16:20:53,Professional,0,2018-08-09_162053,2.0.10.356,,Emo_Nback_20180527,160,False,All,1.0.0.1180,0,0,"['2', 'num_2', 'right']",2.0.10.252,MRI,2.0.10.356,0,False,Stimuli/,Year 2,59.9955943482,1,
nonlure,All,PL_004_92023.bmp,47,Place,0-Back,No Match,5.0,0,51,51,51,,0,No Match,,,,,,,,,,,0,200521,202515,2000,200522,202515,0,202515,202516,500,203015,203015,,,,,,,,,,,"['1', 'num_1', 'left', '2', 'num_2', 'right']",Emo_Nback_20180527_v1-ABCD1234,1,1,Verdana,1,Right,ABCD1234,0,"['5', '7', '^', 'num_5', 'num_7', '=']",08/09/2018,1,16:20:53,Professional,0,2018-08-09_162053,2.0.10.356,,Emo_Nback_20180527,160,False,All,1.0.0.1180,0,0,"['2', 'num_2', 'right']",2.0.10.252,MRI,2.0.10.356,0,False,Stimuli/,Year 2,59.9955943482,1,
nonlure,All,PL_005_92024.bmp,48,Place,0-Back,No Match,5.0,0,52,52,52,,0,No Match,,,,,,,,,,,0,203025,205015,2000,203025,205015,0,205015,205015,500,205516,205516,,,,,,,,,,,"['1', 'num_1', 'left', '2', 'num_2', 'right']",Emo_Nback_20180527_v1-ABCD1234,1,1,Verdana,1,Right,ABCD1234,0,"['5', '7', '^', 'num_5', 'num_7', '=']",08/09/2018,1,16:20:53,Professional,0,2018-08-09_162053,2.0.10.356,,Emo_Nback_20180527,160,False,All,1.0.0.1180,0,0,"['2', 'num_2', 'right']",2.0.10.252,MRI,2.0.10.356,0,False,Stimuli/,Year 2,59.9955943482,1,
target,All,PL_001_92012.bmp,49,Place,0-Back,Match,5.0,0,53,53,53,,0,Match,,,,,,,,,,,0,205521,207515,2000,205521,207515,0,207515,207515,500,208016,208016,,,,,,,,,,,"['1', 'num_1', 'left', '2', 'num_2', 'right']",Emo_Nback_20180527_v1-ABCD1234,1,1,Verdana,1,Right,ABCD1234,0,"['5', '7', '^', 'num_5', 'num_7', '=']",08/09/2018,1,16:20:53,Professional,0,2018-08-09_162053,2.0.10.356,,Emo_Nback_20180527,160,False,All,1.0.0.1180,0,0,"['2', 'num_2', 'right']",2.0.10.252,MRI,2.0.10.356,0,False,Stimuli/,Year 2,59.9955943482,1,
nonlure,All,PL_002_92014.bmp,50,Place,0-Back,No Match,5.0,0,54,54,54,,0,No Match,,,,,,,,,,,0,208024,210016,2000,208025,210016,0,210016,210016,500,210516,210516,,,,,,,,,,,"['1', 'num_1', 'left', '2', 'num_2', 'right']",Emo_Nback_20180527_v1-ABCD1234,1,1,Verdana,1,Right,ABCD1234,0,"['5', '7', '^', 'num_5', 'num_7', '=']",08/09/2018,1,16:20:53,Professional,0,2018-08-09_162053,2.0.10.356,,Emo_Nback_20180527,160,False,All,1.0.0.1180,0,0,"['2', 'num_2', 'right']",2.0.10.252,MRI,2.0.10.356,0,False,Stimuli/,Year 2,59.9955943482,1,
lure,All,PL_004_92023.bmp,51,Place,0-Back,No Match,5.0,0,55,55,55,,0,No Match,,,,,,,,,,,0,210521,212516,2000,210522,212516,0,212516,212516,500,213016,213017,,,,,,,,,,,"['1', 'num_1', 'left', '2', 'num_2', 'right']",Emo_Nback_20180527_v1-ABCD1234,1,1,Verdana,1,Right,ABCD1234,0,"['5', '7', '^', 'num_5', 'num_7', '=']",08/09/2018,1,16:20:53,Professional,0,2018-08-09_162053,2.0.10.356,,Emo_Nback_20180527,160,False,All,1.0.0.1180,0,0,"['2', 'num_2', 'right']",2.0.10.252,MRI,2.0.10.356,0,False,Stimuli/,Year 2,59.9955943482,1,
lure,All,PL_006_92025.bmp,52,Place,0-Back,No Match,5.0,0,56,56,56,,0,No Match,,,,,,,,,,,0,213022,215017,2000,213022,215017,0,215016,215017,500,215517,215517,,,,,,,,,,,"['1', 'num_1', 'left', '2', 'num_2', 'right']",Emo_Nback_20180527_v1-ABCD1234,1,1,Verdana,1,Right,ABCD1234,0,"['5', '7', '^', 'num_5', 'num_7', '=']",08/09/2018,1,16:20:53,Professional,0,2018-08-09_162053,2.0.10.356,,Emo_Nback_20180527,160,False,All,1.0.0.1180,0,0,"['2', 'num_2', 'right']",2.0.10.252,MRI,2.0.10.356,0,False,Stimuli/,Year 2,59.9955943482,1,
None,All,None,None,Faces,Cue2Back,,6.0,0,57,57,57,,0,,216017,216017,218518,218518,215522,215522,216017,2500,216017,500,,,,,,,,,,,,,,,,,,,,,,,"['1', 'num_1', 'left', '2', 'num_2', 'right']",Emo_Nback_20180527_v1-ABCD1234,1,1,Verdana,1,Right,ABCD1234,0,"['5', '7', '^', 'num_5', 'num_7', '=']",08/09/2018,1,16:20:53,Professional,0,2018-08-09_162053,2.0.10.356,,Emo_Nback_20180527,160,False,All,1.0.0.1180,0,0,"['2', 'num_2', 'right']",2.0.10.252,MRI,2.0.10.356,0,False,Stimuli/,Year 2,59.9955943482,1,
nonlure,All,AM228_NC.bmp,52,NeutFace,2-Back,No Match,6.0,0,58,58,58,,0,No Match,,,,,,,,,,,0,218526,220518,2000,218526,220518,0,220518,220518,500,221018,221018,,,,,,,,,,,"['1', 'num_1', 'left', '2', 'num_2', 'right']",Emo_Nback_20180527_v1-ABCD1234,1,1,Verdana,1,Right,ABCD1234,0,"['5', '7', '^', 'num_5', 'num_7', '=']",08/09/2018,1,16:20:53,Professional,0,2018-08-09_162053,2.0.10.356,,Emo_Nback_20180527,160,False,All,1.0.0.1180,0,0,"['2', 'num_2', 'right']",2.0.10.252,MRI,2.0.10.356,0,False,Stimuli/,Year 2,59.9955943482,1,
nonlure,All,26M_NC.bmp,53,NeutFace,2-Back,No Match,6.0,0,59,59,59,,0,No Match,,,,,,,,,,,0,221026,223018,2000,221027,223018,0,223018,223018,500,223518,223518,,,,,,,,,,,"['1', 'num_1', 'left', '2', 'num_2', 'right']",Emo_Nback_20180527_v1-ABCD1234,1,1,Verdana,1,Right,ABCD1234,0,"['5', '7', '^', 'num_5', 'num_7', '=']",08/09/2018,1,16:20:53,Professional,0,2018-08-09_162053,2.0.10.356,,Emo_Nback_20180527,160,False,All,1.0.0.1180,0,0,"['2', 'num_2', 'right']",2.0.10.252,MRI,2.0.10.356,0,False,Stimuli/,Year 2,59.9955943482,1,
target,All,AM228_NC.bmp,54,NeutFace,2-Back,Match,6.0,0,60,60,60,,0,Match,,,,,,,,,,,0,223523,225518,2000,223524,225518,0,225518,225518,500,226018,226018,,,,,,,,,,,"['1', 'num_1', 'left', '2', 'num_2', 'right']",Emo_Nback_20180527_v1-ABCD1234,1,1,Verdana,1,Right,ABCD1234,0,"['5', '7', '^', 'num_5', 'num_7', '=']",08/09/2018,1,16:20:53,Professional,0,2018-08-09_162053,2.0.10.356,,Emo_Nback_20180527,160,False,All,1.0.0.1180,0,0,"['2', 'num_2', 'right']",2.0.10.252,MRI,2.0.10.356,0,False,Stimuli/,Year 2,59.9955943482,1,
nonlure,All,LF227_NC.bmp,55,NeutFace,2-Back,No Match,6.0,0,61,61,61,,0,No Match,,,,,,,,,,,0,226027,228019,2000,226027,228019,0,228019,228019,500,228518,228518,,,,,,,,,,,"['1', 'num_1', 'left', '2', 'num_2', 'right']",Emo_Nback_20180527_v1-ABCD1234,1,1,Verdana,1,Right,ABCD1234,0,"['5', '7', '^', 'num_5', 'num_7', '=']",08/09/2018,1,16:20:53,Professional,0,2018-08-09_162053,2.0.10.356,,Emo_Nback_20180527,160,False,All,1.0.0.1180,0,0,"['2', 'num_2', 'right']",2.0.10.252,MRI,2.0.10.356,0,False,Stimuli/,Year 2,59.9955943482,1,
lure,All,26M_NC.bmp,56,NeutFace,2-Back,No Match,6.0,0,62,62,62,,0,No Match,,,,,,,,,,,0,228523,230519,2000,228524,230519,0,230519,230519,500,231019,231019,,,,,,,,,,,"['1', 'num_1', 'left', '2', 'num_2', 'right']",Emo_Nback_20180527_v1-ABCD1234,1,1,Verdana,1,Right,ABCD1234,0,"['5', '7', '^', 'num_5', 'num_7', '=']",08/09/2018,1,16:20:53,Professional,0,2018-08-09_162053,2.0.10.356,,Emo_Nback_20180527,160,False,All,1.0.0.1180,0,0,"['2', 'num_2', 'right']",2.0.10.252,MRI,2.0.10.356,0,False,Stimuli/,Year 2,59.9955943482,1,
target,All,LF227_NC.bmp,57,NeutFace,2-Back,Match,6.0,0,63,63,63,,0,Match,,,,,,,,,,,0,231024,233019,2000,231025,233019,0,233019,233019,500,233519,233519,,,,,,,,,,,"['1', 'num_1', 'left', '2', 'num_2', 'right']",Emo_Nback_20180527_v1-ABCD1234,1,1,Verdana,1,Right,ABCD1234,0,"['5', '7', '^', 'num_5', 'num_7', '=']",08/09/2018,1,16:20:53,Professional,0,2018-08-09_162053,2.0.10.356,,Emo_Nback_20180527,160,False,All,1.0.0.1180,0,0,"['2', 'num_2', 'right']",2.0.10.252,MRI,2.0.10.356,0,False,Stimuli/,Year 2,59.9955943482,1,
nonlure,All,AF206_NC.bmp,58,NeutFace,2-Back,No Match,6.0,0,64,64,64,,0,No Match,,,,,,,,,,,0,233528,235520,2000,233528,235520,0,235520,235520,500,236019,236019,,,,,,,,,,,"['1', 'num_1', 'left', '2', 'num_2', 'right']",Emo_Nback_20180527_v1-ABCD1234,1,1,Verdana,1,Right,ABCD1234,0,"['5', '7', '^', 'num_5', 'num_7', '=']",08/09/2018,1,16:20:53,Professional,0,2018-08-09_162053,2.0.10.356,,Emo_Nback_20180527,160,False,All,1.0.0.1180,0,0,"['2', 'num_2', 'right']",2.0.10.252,MRI,2.0.10.356,0,False,Stimuli/,Year 2,59.9955943482,1,
lure,All,AF206_NC.bmp,59,NeutFace,2-Back,No Match,6.0,0,65,65,65,,0,No Match,,,,,,,,,,,0,236025,238020,2000,236025,238020,0,238020,238020,500,238520,238520,,,,,,,,,,,"['1', 'num_1', 'left', '2', 'num_2', 'right']",Emo_Nback_20180527_v1-ABCD1234,1,1,Verdana,1,Right,ABCD1234,0,"['5', '7', '^', 'num_5', 'num_7', '=']",08/09/2018,1,16:20:53,Professional,0,2018-08-09_162053,2.0.10.356,,Emo_Nback_20180527,160,False,All,1.0.0.1180,0,0,"['2', 'num_2', 'right']",2.0.10.252,MRI,2.0.10.356,0,False,Stimuli/,Year 2,59.9955943482,1,
nonlure,All,BM03_NC.bmp,60,NeutFace,2-Back,No Match,6.0,0,66,66,66,,0,No Match,,,,,,,,,,,0,238528,240521,2000,238529,240521,0,240521,240521,500,241020,241020,,,,,,,,,,,"['1', 'num_1', 'left', '2', 'num_2', 'right']",Emo_Nback_20180527_v1-ABCD1234,1,1,Verdana,1,Right,ABCD1234,0,"['5', '7', '^', 'num_5', 'num_7', '=']",08/09/2018,1,16:20:53,Professional,0,2018-08-09_162053,2.0.10.356,,Emo_Nback_20180527,160,False,All,1.0.0.1180,0,0,"['2', 'num_2', 'right']",2.0.10.252,MRI,2.0.10.356,0,False,Stimuli/,Year 2,59.9955943482,1,
nonlure,All,WF012_NC.bmp,61,NeutFace,2-Back,No Match,6.0,0,67,67,67,,0,No Match,,,,,,,,,,,0,241030,243021,2000,241031,243021,0,243021,243021,500,243520,243520,,,,,,,,,,,"['1', 'num_1', 'left', '2', 'num_2', 'right']",Emo_Nback_20180527_v1-ABCD1234,1,1,Verdana,1,Right,ABCD1234,0,"['5', '7', '^', 'num_5', 'num_7', '=']",08/09/2018,1,16:20:53,Professional,0,2018-08-09_162053,2.0.10.356,,Emo_Nback_20180527,160,False,All,1.0.0.1180,0,0,"['2', 'num_2', 'right']",2.0.10.252,MRI,2.0.10.356,0,False,Stimuli/,Year 2,59.9955943482,1,
None,All,None,None,None,Fix15secPROC,,None,0,68,68,68,,0,,,,,,,,,,,,,,,,,,,,,,,,,,,,,243523,15000,258523,243523,258523,"['1', 'num_1', 'left', '2', 'num_2', 'right']",Emo_Nback_20180527_v1-ABCD1234,1,1,Verdana,1,Right,ABCD1234,0,"['5', '7', '^', 'num_5', 'num_7', '=']",08/09/2018,1,16:20:53,Professional,0,2018-08-09_162053,2.0.10.356,,Emo_Nback_20180527,160,False,All,1.0.0.1180,0,0,"['2', 'num_2', 'right']",2.0.10.252,MRI,2.0.10.356,0,False,Stimuli/,Year 2,59.9955943482,1,
target,All,39M_FO.bmp,None,Faces,Cue0Back,,7.0,0,69,69,69,,0,,259023,,,,258532,258532,259023,,,500,,,,,,,,,,,,,259023,261523,259023,261523,2500,,,,,,"['1', 'num_1', 'left', '2', 'num_2', 'right']",Emo_Nback_20180527_v1-ABCD1234,1,1,Verdana,1,Right,ABCD1234,0,"['5', '7', '^', 'num_5', 'num_7', '=']",08/09/2018,1,16:20:53,Professional,0,2018-08-09_162053,2.0.10.356,,Emo_Nback_20180527,160,False,All,1.0.0.1180,0,0,"['2', 'num_2', 'right']",2.0.10.252,MRI,2.0.10.356,0,False,Stimuli/,Year 2,59.9955943482,1,
nonlure,All,BF003_FO.bmp,62,NegFace,0-Back,No Match,7.0,0,70,70,70,,0,No Match,,,,,,,,,,,0,261531,263524,2000,261532,263524,0,263524,263524,500,264023,264023,,,,,,,,,,,"['1', 'num_1', 'left', '2', 'num_2', 'right']",Emo_Nback_20180527_v1-ABCD1234,1,1,Verdana,1,Right,ABCD1234,0,"['5', '7', '^', 'num_5', 'num_7', '=']",08/09/2018,1,16:20:53,Professional,0,2018-08-09_162053,2.0.10.356,,Emo_Nback_20180527,160,False,All,1.0.0.1180,0,0,"['2', 'num_2', 'right']",2.0.10.252,MRI,2.0.10.356,0,False,Stimuli/,Year 2,59.9955943482,1,
nonlure,All,HM05_FO.bmp,63,NegFace,0-Back,No Match,7.0,0,71,71,71,,0,No Match,,,,,,,,,,,0,264033,266024,2000,264034,266024,0,266024,266024,500,266524,266524,,,,,,,,,,,"['1', 'num_1', 'left', '2', 'num_2', 'right']",Emo_Nback_20180527_v1-ABCD1234,1,1,Verdana,1,Right,ABCD1234,0,"['5', '7', '^', 'num_5', 'num_7', '=']",08/09/2018,1,16:20:53,Professional,0,2018-08-09_162053,2.0.10.356,,Emo_Nback_20180527,160,False,All,1.0.0.1180,0,0,"['2', 'num_2', 'right']",2.0.10.252,MRI,2.0.10.356,0,False,Stimuli/,Year 2,59.9955943482,1,
lure,All,HM05_FO.bmp,64,NegFace,0-Back,No Match,7.0,0,72,72,72,,0,No Match,,,,,,,,,,,0,266529,268524,2000,266529,268524,0,268524,268524,500,269024,269024,,,,,,,,,,,"['1', 'num_1', 'left', '2', 'num_2', 'right']",Emo_Nback_20180527_v1-ABCD1234,1,1,Verdana,1,Right,ABCD1234,0,"['5', '7', '^', 'num_5', 'num_7', '=']",08/09/2018,1,16:20:53,Professional,0,2018-08-09_162053,2.0.10.356,,Emo_Nback_20180527,160,False,All,1.0.0.1180,0,0,"['2', 'num_2', 'right']",2.0.10.252,MRI,2.0.10.356,0,False,Stimuli/,Year 2,59.9955943482,1,
nonlure,All,10F_FO.bmp,65,NegFace,0-Back,No Match,7.0,0,73,73,73,,0,No Match,,,,,,,,,,,0,269034,271024,2000,269035,271024,0,271024,271024,500,271524,271524,,,,,,,,,,,"['1', 'num_1', 'left', '2', 'num_2', 'right']",Emo_Nback_20180527_v1-ABCD1234,1,1,Verdana,1,Right,ABCD1234,0,"['5', '7', '^', 'num_5', 'num_7', '=']",08/09/2018,1,16:20:53,Professional,0,2018-08-09_162053,2.0.10.356,,Emo_Nback_20180527,160,False,All,1.0.0.1180,0,0,"['2', 'num_2', 'right']",2.0.10.252,MRI,2.0.10.356,0,False,Stimuli/,Year 2,59.9955943482,1,
nonlure,All,BF09_FO.bmp,66,NegFace,0-Back,No Match,7.0,0,74,74,74,,0,No Match,,,,,,,,,,,0,271534,273525,2000,271534,273525,0,273524,273525,500,274025,274025,,,,,,,,,,,"['1', 'num_1', 'left', '2', 'num_2', 'right']",Emo_Nback_20180527_v1-ABCD1234,1,1,Verdana,1,Right,ABCD1234,0,"['5', '7', '^', 'num_5', 'num_7', '=']",08/09/2018,1,16:20:53,Professional,0,2018-08-09_162053,2.0.10.356,,Emo_Nback_20180527,160,False,All,1.0.0.1180,0,0,"['2', 'num_2', 'right']",2.0.10.252,MRI,2.0.10.356,0,False,Stimuli/,Year 2,59.9955943482,1,
nonlure,All,28M_FO.bmp,67,NegFace,0-Back,No Match,7.0,0,75,75,75,,0,No Match,,,,,,,,,,,0,274033,276025,2000,274034,276025,0,276025,276025,500,276525,276525,,,,,,,,,,,"['1', 'num_1', 'left', '2', 'num_2', 'right']",Emo_Nback_20180527_v1-ABCD1234,1,1,Verdana,1,Right,ABCD1234,0,"['5', '7', '^', 'num_5', 'num_7', '=']",08/09/2018,1,16:20:53,Professional,0,2018-08-09_162053,2.0.10.356,,Emo_Nback_20180527,160,False,All,1.0.0.1180,0,0,"['2', 'num_2', 'right']",2.0.10.252,MRI,2.0.10.356,0,False,Stimuli/,Year 2,59.9955943482,1,
lure,All,BF003_FO.bmp,68,NegFace,0-Back,No Match,7.0,0,76,76,76,,0,No Match,,,,,,,,,,,0,276530,278526,2000,276531,278526,0,278526,278526,500,279025,279025,,,,,,,,,,,"['1', 'num_1', 'left', '2', 'num_2', 'right']",Emo_Nback_20180527_v1-ABCD1234,1,1,Verdana,1,Right,ABCD1234,0,"['5', '7', '^', 'num_5', 'num_7', '=']",08/09/2018,1,16:20:53,Professional,0,2018-08-09_162053,2.0.10.356,,Emo_Nback_20180527,160,False,All,1.0.0.1180,0,0,"['2', 'num_2', 'right']",2.0.10.252,MRI,2.0.10.356,0,False,Stimuli/,Year 2,59.9955943482,1,
target,All,39M_FO.bmp,69,NegFace,0-Back,Match,7.0,0,77,77,77,,0,Match,,,,,,,,,,,0,279032,281026,2000,279032,281026,0,281026,281026,500,281526,281526,,,,,,,,,,,"['1', 'num_1', 'left', '2', 'num_2', 'right']",Emo_Nback_20180527_v1-ABCD1234,1,1,Verdana,1,Right,ABCD1234,0,"['5', '7', '^', 'num_5', 'num_7', '=']",08/09/2018,1,16:20:53,Professional,0,2018-08-09_162053,2.0.10.356,,Emo_Nback_20180527,160,False,All,1.0.0.1180,0,0,"['2', 'num_2', 'right']",2.0.10.252,MRI,2.0.10.356,0,False,Stimuli/,Year 2,59.9955943482,1,
lure,All,10F_FO.bmp,70,NegFace,0-Back,No Match,7.0,0,78,78,78,,0,No Match,,,,,,,,,,,0,281531,283526,2000,281531,283526,0,283526,283526,500,284026,284026,,,,,,,,,,,"['1', 'num_1', 'left', '2', 'num_2', 'right']",Emo_Nback_20180527_v1-ABCD1234,1,1,Verdana,1,Right,ABCD1234,0,"['5', '7', '^', 'num_5', 'num_7', '=']",08/09/2018,1,16:20:53,Professional,0,2018-08-09_162053,2.0.10.356,,Emo_Nback_20180527,160,False,All,1.0.0.1180,0,0,"['2', 'num_2', 'right']",2.0.10.252,MRI,2.0.10.356,0,False,Stimuli/,Year 2,59.9955943482,1,
target,All,39M_FO.bmp,71,NegFace,0-Back,Match,7.0,0,79,79,79,,0,Match,,,,,,,,,,,0,284031,286027,2000,284032,286027,0,286027,286027,500,286526,286526,,,,,,,,,,,"['1', 'num_1', 'left', '2', 'num_2', 'right']",Emo_Nback_20180527_v1-ABCD1234,1,1,Verdana,1,Right,ABCD1234,0,"['5', '7', '^', 'num_5', 'num_7', '=']",08/09/2018,1,16:20:53,Professional,0,2018-08-09_162053,2.0.10.356,,Emo_Nback_20180527,160,False,All,1.0.0.1180,0,0,"['2', 'num_2', 'right']",2.0.10.252,MRI,2.0.10.356,0,False,Stimuli/,Year 2,59.9955943482,1,
None,All,None,None,Faces,Cue2Back,,8.0,0,80,80,80,,0,,287027,287027,289527,289527,286532,286532,287027,2500,287027,500,,,,,,,,,,,,,,,,,,,,,,,"['1', 'num_1', 'left', '2', 'num_2', 'right']",Emo_Nback_20180527_v1-ABCD1234,1,1,Verdana,1,Right,ABCD1234,0,"['5', '7', '^', 'num_5', 'num_7', '=']",08/09/2018,1,16:20:53,Professional,0,2018-08-09_162053,2.0.10.356,,Emo_Nback_20180527,160,False,All,1.0.0.1180,0,0,"['2', 'num_2', 'right']",2.0.10.252,MRI,2.0.10.356,0,False,Stimuli/,Year 2,59.9955943482,1,
nonlure,All,PL_007_92026.bmp,72,Place,2-Back,No Match,8.0,0,81,81,81,,0,No Match,,,,,,,,,,,0,289535,291528,2000,289535,291528,0,291528,291528,500,292027,292027,,,,,,,,,,,"['1', 'num_1', 'left', '2', 'num_2', 'right']",Emo_Nback_20180527_v1-ABCD1234,1,1,Verdana,1,Right,ABCD1234,0,"['5', '7', '^', 'num_5', 'num_7', '=']",08/09/2018,1,16:20:53,Professional,0,2018-08-09_162053,2.0.10.356,,Emo_Nback_20180527,160,False,All,1.0.0.1180,0,0,"['2', 'num_2', 'right']",2.0.10.252,MRI,2.0.10.356,0,False,Stimuli/,Year 2,59.9955943482,1,
lure,All,PL_007_92026.bmp,73,Place,2-Back,No Match,8.0,0,82,82,82,,0,No Match,,,,,,,,,,,0,292032,294027,2000,292033,294027,0,294027,294027,500,294528,294528,,,,,,,,,,,"['1', 'num_1', 'left', '2', 'num_2', 'right']",Emo_Nback_20180527_v1-ABCD1234,1,1,Verdana,1,Right,ABCD1234,0,"['5', '7', '^', 'num_5', 'num_7', '=']",08/09/2018,1,16:20:53,Professional,0,2018-08-09_162053,2.0.10.356,,Emo_Nback_20180527,160,False,All,1.0.0.1180,0,0,"['2', 'num_2', 'right']",2.0.10.252,MRI,2.0.10.356,0,False,Stimuli/,Year 2,59.9955943482,1,
nonlure,All,PL_010_92038.bmp,74,Place,2-Back,No Match,8.0,0,83,83,83,,0,No Match,,,,,,,,,,,0,294537,296527,2000,294538,296527,0,296527,296527,500,297028,297028,,,,,,,,,,,"['1', 'num_1', 'left', '2', 'num_2', 'right']",Emo_Nback_20180527_v1-ABCD1234,1,1,Verdana,1,Right,ABCD1234,0,"['5', '7', '^', 'num_5', 'num_7', '=']",08/09/2018,1,16:20:53,Professional,0,2018-08-09_162053,2.0.10.356,,Emo_Nback_20180527,160,False,All,1.0.0.1180,0,0,"['2', 'num_2', 'right']",2.0.10.252,MRI,2.0.10.356,0,False,Stimuli/,Year 2,59.9955943482,1,
nonlure,All,PL_009_92037.bmp,75,Place,2-Back,No Match,8.0,0,84,84,84,,0,No Match,,,,,,,,,,,0,297037,299028,2000,297037,299028,0,299028,299028,500,299528,299528,,,,,,,,,,,"['1', 'num_1', 'left', '2', 'num_2', 'right']",Emo_Nback_20180527_v1-ABCD1234,1,1,Verdana,1,Right,ABCD1234,0,"['5', '7', '^', 'num_5', 'num_7', '=']",08/09/2018,1,16:20:53,Professional,0,2018-08-09_162053,2.0.10.356,,Emo_Nback_20180527,160,False,All,1.0.0.1180,0,0,"['2', 'num_2', 'right']",2.0.10.252,MRI,2.0.10.356,0,False,Stimuli/,Year 2,59.9955943482,1,
target,All,PL_010_92038.bmp,76,Place,2-Back,Match,8.0,0,85,85,85,,0,Match,,,,,,,,,,,0,299533,301528,2000,299533,301528,0,301528,301528,500,302028,302029,,,,,,,,,,,"['1', 'num_1', 'left', '2', 'num_2', 'right']",Emo_Nback_20180527_v1-ABCD1234,1,1,Verdana,1,Right,ABCD1234,0,"['5', '7', '^', 'num_5', 'num_7', '=']",08/09/2018,1,16:20:53,Professional,0,2018-08-09_162053,2.0.10.356,,Emo_Nback_20180527,160,False,All,1.0.0.1180,0,0,"['2', 'num_2', 'right']",2.0.10.252,MRI,2.0.10.356,0,False,Stimuli/,Year 2,59.9955943482,1,
target,All,PL_009_92037.bmp,77,Place,2-Back,Match,8.0,0,86,86,86,,0,Match,,,,,,,,,,,0,302034,304029,2000,302034,304029,0,304029,304029,500,304529,304529,,,,,,,,,,,"['1', 'num_1', 'left', '2', 'num_2', 'right']",Emo_Nback_20180527_v1-ABCD1234,1,1,Verdana,1,Right,ABCD1234,0,"['5', '7', '^', 'num_5', 'num_7', '=']",08/09/2018,1,16:20:53,Professional,0,2018-08-09_162053,2.0.10.356,,Emo_Nback_20180527,160,False,All,1.0.0.1180,0,0,"['2', 'num_2', 'right']",2.0.10.252,MRI,2.0.10.356,0,False,Stimuli/,Year 2,59.9955943482,1,
nonlure,All,PL_008_92033.bmp,78,Place,2-Back,No Match,8.0,0,87,87,87,,0,No Match,,,,,,,,,,,0,304538,306529,2000,304539,306529,0,306529,306529,500,307029,307029,,,,,,,,,,,"['1', 'num_1', 'left', '2', 'num_2', 'right']",Emo_Nback_20180527_v1-ABCD1234,1,1,Verdana,1,Right,ABCD1234,0,"['5', '7', '^', 'num_5', 'num_7', '=']",08/09/2018,1,16:20:53,Professional,0,2018-08-09_162053,2.0.10.356,,Emo_Nback_20180527,160,False,All,1.0.0.1180,0,0,"['2', 'num_2', 'right']",2.0.10.252,MRI,2.0.10.356,0,False,Stimuli/,Year 2,59.9955943482,1,
nonlure,All,PL_012_92047.bmp,79,Place,2-Back,No Match,8.0,0,88,88,88,,0,No Match,,,,,,,,,,,0,307039,309029,2000,307040,309029,0,309029,309029,500,309530,309530,,,,,,,,,,,"['1', 'num_1', 'left', '2', 'num_2', 'right']",Emo_Nback_20180527_v1-ABCD1234,1,1,Verdana,1,Right,ABCD1234,0,"['5', '7', '^', 'num_5', 'num_7', '=']",08/09/2018,1,16:20:53,Professional,0,2018-08-09_162053,2.0.10.356,,Emo_Nback_20180527,160,False,All,1.0.0.1180,0,0,"['2', 'num_2', 'right']",2.0.10.252,MRI,2.0.10.356,0,False,Stimuli/,Year 2,59.9955943482,1,
lure,All,PL_012_92047.bmp,80,Place,2-Back,No Match,8.0,0,89,89,89,,0,No Match,,,,,,,,,,,0,309535,311529,2000,309535,311529,0,311529,311529,500,312030,312030,,,,,,,,,,,"['1', 'num_1', 'left', '2', 'num_2', 'right']",Emo_Nback_20180527_v1-ABCD1234,1,1,Verdana,1,Right,ABCD1234,0,"['5', '7', '^', 'num_5', 'num_7', '=']",08/09/2018,1,16:20:53,Professional,0,2018-08-09_162053,2.0.10.356,,Emo_Nback_20180527,160,False,All,1.0.0.1180,0,0,"['2', 'num_2', 'right']",2.0.10.252,MRI,2.0.10.356,0,False,Stimuli/,Year 2,59.9955943482,1,
nonlure,All,PL_011_92044.bmp,81,Place,2-Back,No Match,8.0,0,90,90,90,,0,No Match,,,,,,,,,,,0,312037,314013,2000,312037,314013,0,314013,314013,500,314513,314513,,,,,,,,,,,"['1', 'num_1', 'left', '2', 'num_2', 'right']",Emo_Nback_20180527_v1-ABCD1234,1,1,Verdana,1,Right,ABCD1234,0,"['5', '7', '^', 'num_5', 'num_7', '=']",08/09/2018,1,16:20:53,Professional,0,2018-08-09_162053,2.0.10.356,,Emo_Nback_20180527,160,False,All,1.0.0.1180,0,0,"['2', 'num_2', 'right']",2.0.10.252,MRI,2.0.10.356,0,False,Stimuli/,Year 2,59.9955943482,1,
None,All,None,None,None,Fix15secPROC,,None,0,91,91,91,,0,,,,,,,,,,,,,,,,,,,,,,,,,,,,,314516,15000,329516,314516,329516,"['1', 'num_1', 'left', '2', 'num_2', 'right']",Emo_Nback_20180527_v1-ABCD1234,1,1,Verdana,1,Right,ABCD1234,0,"['5', '7', '^', 'num_5', 'num_7', '=']",08/09/2018,1,16:20:53,Professional,0,2018-08-09_162053,2.0.10.356,,Emo_Nback_20180527,160,False,All,1.0.0.1180,0,0,"['2', 'num_2', 'right']",2.0.10.252,MRI,2.0.10.356,0,False,Stimuli/,Year 2,59.9955943482,1,
"",All,"","",Faces,Cue2Back,"","",0,0,0,0,,0,"",383790,383790,386290,386290,383279,383279,383790,2500,383790,500,,,,,,,,,,,,,,,,,,,,,,,"['1', 'num_1', 'left', '2', 'num_2', 'right']",Emo_Nback_20180527_v1-ABCD1234,1,1,Verdana,1,Right,ABCD1234,0,"['5', '7', '^', 'num_5', 'num_7', '=']",08/09/2018,1,16:20:53,Professional,0,2018-08-09_162053,2.0.10.356,,Emo_Nback_20180527,160,False,All,1.0.0.1180,0,0,"['2', 'num_2', 'right']",2.0.10.252,MRI,2.0.10.356,0,False,Stimuli/,Year 2,59.9955943482,1,
nonlure,All,16F_FO.bmp,82,NegFace,2-Back,No Match,1,0,1,1,1,,0,No Match,,,,,,,,,,,0,386300,388290,2000,386300,388290,0,388290,388290,500,388790,388790,,,,,,,,,,,"['1', 'num_1', 'left', '2', 'num_2', 'right']",Emo_Nback_20180527_v1-ABCD1234,1,1,Verdana,1,Right,ABCD1234,0,"['5', '7', '^', 'num_5', 'num_7', '=']",08/09/2018,1,16:20:53,Professional,0,2018-08-09_162053,2.0.10.356,,Emo_Nback_20180527,160,False,All,1.0.0.1180,0,0,"['2', 'num_2', 'right']",2.0.10.252,MRI,2.0.10.356,0,False,Stimuli/,Year 2,59.9955943482,1,
nonlure,All,1F_FO.bmp,83,NegFace,2-Back,No Match,1,0,2,2,2,,0,No Match,,,,,,,,,,,0,388800,390791,2000,388801,390791,0,390791,390791,500,391291,391291,,,,,,,,,,,"['1', 'num_1', 'left', '2', 'num_2', 'right']",Emo_Nback_20180527_v1-ABCD1234,1,1,Verdana,1,Right,ABCD1234,0,"['5', '7', '^', 'num_5', 'num_7', '=']",08/09/2018,1,16:20:53,Professional,0,2018-08-09_162053,2.0.10.356,,Emo_Nback_20180527,160,False,All,1.0.0.1180,0,0,"['2', 'num_2', 'right']",2.0.10.252,MRI,2.0.10.356,0,False,Stimuli/,Year 2,59.9955943482,1,
nonlure,All,BM023_FO.bmp,84,NegFace,2-Back,No Match,1,0,3,3,3,,0,No Match,,,,,,,,,,,0,391301,393291,2000,391301,393291,0,393291,393291,500,393791,393791,,,,,,,,,,,"['1', 'num_1', 'left', '2', 'num_2', 'right']",Emo_Nback_20180527_v1-ABCD1234,1,1,Verdana,1,Right,ABCD1234,0,"['5', '7', '^', 'num_5', 'num_7', '=']",08/09/2018,1,16:20:53,Professional,0,2018-08-09_162053,2.0.10.356,,Emo_Nback_20180527,160,False,All,1.0.0.1180,0,0,"['2', 'num_2', 'right']",2.0.10.252,MRI,2.0.10.356,0,False,Stimuli/,Year 2,59.9955943482,1,
lure,All,16F_FO.bmp,85,NegFace,2-Back,No Match,1,0,4,4,4,,0,No Match,,,,,,,,,,,0,393796,395792,2000,393796,395792,0,395791,395792,500,396291,396292,,,,,,,,,,,"['1', 'num_1', 'left', '2', 'num_2', 'right']",Emo_Nback_20180527_v1-ABCD1234,1,1,Verdana,1,Right,ABCD1234,0,"['5', '7', '^', 'num_5', 'num_7', '=']",08/09/2018,1,16:20:53,Professional,0,2018-08-09_162053,2.0.10.356,,Emo_Nback_20180527,160,False,All,1.0.0.1180,0,0,"['2', 'num_2', 'right']",2.0.10.252,MRI,2.0.10.356,0,False,Stimuli/,Year 2,59.9955943482,1,
target,All,BM023_FO.bmp,86,NegFace,2-Back,Match,1,0,5,5,5,,0,Match,,,,,,,,,,,0,396297,398292,2000,396297,398292,0,398292,398292,500,398792,398792,,,,,,,,,,,"['1', 'num_1', 'left', '2', 'num_2', 'right']",Emo_Nback_20180527_v1-ABCD1234,1,1,Verdana,1,Right,ABCD1234,0,"['5', '7', '^', 'num_5', 'num_7', '=']",08/09/2018,1,16:20:53,Professional,0,2018-08-09_162053,2.0.10.356,,Emo_Nback_20180527,160,False,All,1.0.0.1180,0,0,"['2', 'num_2', 'right']",2.0.10.252,MRI,2.0.10.356,0,False,Stimuli/,Year 2,59.9955943482,1,
nonlure,All,3F_FO.bmp,87,NegFace,2-Back,No Match,1,0,6,6,6,,0,No Match,,,,,,,,,,,0,398802,400792,2000,398803,400792,0,400792,400792,500,401292,401292,,,,,,,,,,,"['1', 'num_1', 'left', '2', 'num_2', 'right']",Emo_Nback_20180527_v1-ABCD1234,1,1,Verdana,1,Right,ABCD1234,0,"['5', '7', '^', 'num_5', 'num_7', '=']",08/09/2018,1,16:20:53,Professional,0,2018-08-09_162053,2.0.10.356,,Emo_Nback_20180527,160,False,All,1.0.0.1180,0,0,"['2', 'num_2', 'right']",2.0.10.252,MRI,2.0.10.356,0,False,Stimuli/,Year 2,59.9955943482,1,
nonlure,All,AM05_FO.bmp,88,NegFace,2-Back,No Match,1,0,7,7,7,,0,No Match,,,,,,,,,,,0,401299,403276,2000,401300,403276,0,403276,403277,500,403776,403776,,,,,,,,,,,"['1', 'num_1', 'left', '2', 'num_2', 'right']",Emo_Nback_20180527_v1-ABCD1234,1,1,Verdana,1,Right,ABCD1234,0,"['5', '7', '^', 'num_5', 'num_7', '=']",08/09/2018,1,16:20:53,Professional,0,2018-08-09_162053,2.0.10.356,,Emo_Nback_20180527,160,False,All,1.0.0.1180,0,0,"['2', 'num_2', 'right']",2.0.10.252,MRI,2.0.10.356,0,False,Stimuli/,Year 2,59.9955943482,1,
target,All,3F_FO.bmp,89,NegFace,2-Back,Match,1,0,8,8,8,,0,Match,,,,,,,,,,,0,403781,405776,2000,403781,405776,0,405776,405776,500,406276,406276,,,,,,,,,,,"['1', 'num_1', 'left', '2', 'num_2', 'right']",Emo_Nback_20180527_v1-ABCD1234,1,1,Verdana,1,Right,ABCD1234,0,"['5', '7', '^', 'num_5', 'num_7', '=']",08/09/2018,1,16:20:53,Professional,0,2018-08-09_162053,2.0.10.356,,Emo_Nback_20180527,160,False,All,1.0.0.1180,0,0,"['2', 'num_2', 'right']",2.0.10.252,MRI,2.0.10.356,0,False,Stimuli/,Year 2,59.9955943482,1,
nonlure,All,WM003_FO.bmp,90,NegFace,2-Back,No Match,1,0,9,9,9,,0,No Match,,,,,,,,,,,0,406283,408276,2000,406283,408276,0,408276,408276,500,408776,408776,,,,,,,,,,,"['1', 'num_1', 'left', '2', 'num_2', 'right']",Emo_Nback_20180527_v1-ABCD1234,1,1,Verdana,1,Right,ABCD1234,0,"['5', '7', '^', 'num_5', 'num_7', '=']",08/09/2018,1,16:20:53,Professional,0,2018-08-09_162053,2.0.10.356,,Emo_Nback_20180527,160,False,All,1.0.0.1180,0,0,"['2', 'num_2', 'right']",2.0.10.252,MRI,2.0.10.356,0,False,Stimuli/,Year 2,59.9955943482,1,
lure,All,AM05_FO.bmp,91,NegFace,2-Back,No Match,1,0,10,10,10,,0,No Match,,,,,,,,,,,0,408782,410776,2000,408782,410776,0,410776,410776,500,411277,411277,,,,,,,,,,,"['1', 'num_1', 'left', '2', 'num_2', 'right']",Emo_Nback_20180527_v1-ABCD1234,1,1,Verdana,1,Right,ABCD1234,0,"['5', '7', '^', 'num_5', 'num_7', '=']",08/09/2018,1,16:20:53,Professional,0,2018-08-09_162053,2.0.10.356,,Emo_Nback_20180527,160,False,All,1.0.0.1180,0,0,"['2', 'num_2', 'right']",2.0.10.252,MRI,2.0.10.356,0,False,Stimuli/,Year 2,59.9955943482,1,
target,All,19F_HO.bmp,None,Faces,Cue0Back,,2,0,11,11,11,,0,,411777,,,,411285,411285,411777,,,500,,,,,,,,,,,,,411778,414277,411777,414277,2500,,,,,,"['1', 'num_1', 'left', '2', 'num_2', 'right']",Emo_Nback_20180527_v1-ABCD1234,1,1,Verdana,1,Right,ABCD1234,0,"['5', '7', '^', 'num_5', 'num_7', '=']",08/09/2018,1,16:20:53,Professional,0,2018-08-09_162053,2.0.10.356,,Emo_Nback_20180527,160,False,All,1.0.0.1180,0,0,"['2', 'num_2', 'right']",2.0.10.252,MRI,2.0.10.356,0,False,Stimuli/,Year 2,59.9955943482,1,
nonlure,All,32M_HO.bmp,92,PosFace,0-Back,No Match,2,0,12,12,12,,0,No Match,,,,,,,,,,,0,414284,416278,2000,414284,416278,0,416278,416278,500,416777,416777,,,,,,,,,,,"['1', 'num_1', 'left', '2', 'num_2', 'right']",Emo_Nback_20180527_v1-ABCD1234,1,1,Verdana,1,Right,ABCD1234,0,"['5', '7', '^', 'num_5', 'num_7', '=']",08/09/2018,1,16:20:53,Professional,0,2018-08-09_162053,2.0.10.356,,Emo_Nback_20180527,160,False,All,1.0.0.1180,0,0,"['2', 'num_2', 'right']",2.0.10.252,MRI,2.0.10.356,0,False,Stimuli/,Year 2,59.9955943482,1,
nonlure,All,BF016_HO.bmp,93,PosFace,0-Back,No Match,2,0,13,13,13,,0,No Match,,,,,,,,,,,0,416787,418778,2000,416788,418778,0,418778,418778,500,419278,419278,,,,,,,,,,,"['1', 'num_1', 'left', '2', 'num_2', 'right']",Emo_Nback_20180527_v1-ABCD1234,1,1,Verdana,1,Right,ABCD1234,0,"['5', '7', '^', 'num_5', 'num_7', '=']",08/09/2018,1,16:20:53,Professional,0,2018-08-09_162053,2.0.10.356,,Emo_Nback_20180527,160,False,All,1.0.0.1180,0,0,"['2', 'num_2', 'right']",2.0.10.252,MRI,2.0.10.356,0,False,Stimuli/,Year 2,59.9955943482,1,
nonlure,All,BM06_HO.bmp,94,PosFace,0-Back,No Match,2,0,14,14,14,,0,No Match,,,,,,,,,,,0,419287,421278,2000,419287,421278,0,421278,421278,500,421778,421778,,,,,,,,,,,"['1', 'num_1', 'left', '2', 'num_2', 'right']",Emo_Nback_20180527_v1-ABCD1234,1,1,Verdana,1,Right,ABCD1234,0,"['5', '7', '^', 'num_5', 'num_7', '=']",08/09/2018,1,16:20:53,Professional,0,2018-08-09_162053,2.0.10.356,,Emo_Nback_20180527,160,False,All,1.0.0.1180,0,0,"['2', 'num_2', 'right']",2.0.10.252,MRI,2.0.10.356,0,False,Stimuli/,Year 2,59.9955943482,1,
lure,All,BF016_HO.bmp,95,PosFace,0-Back,No Match,2,0,15,15,15,,0,No Match,,,,,,,,,,,0,421782,423779,2000,421782,423779,0,423779,423779,500,424278,424278,,,,,,,,,,,"['1', 'num_1', 'left', '2', 'num_2', 'right']",Emo_Nback_20180527_v1-ABCD1234,1,1,Verdana,1,Right,ABCD1234,0,"['5', '7', '^', 'num_5', 'num_7', '=']",08/09/2018,1,16:20:53,Professional,0,2018-08-09_162053,2.0.10.356,,Emo_Nback_20180527,160,False,All,1.0.0.1180,0,0,"['2', 'num_2', 'right']",2.0.10.252,MRI,2.0.10.356,0,False,Stimuli/,Year 2,59.9955943482,1,
target,All,19F_HO.bmp,96,PosFace,0-Back,Match,2,0,16,16,16,,0,Match,,,,,,,,,,,0,424284,426279,2000,424284,426279,0,426279,426279,500,426779,426779,,,,,,,,,,,"['1', 'num_1', 'left', '2', 'num_2', 'right']",Emo_Nback_20180527_v1-ABCD1234,1,1,Verdana,1,Right,ABCD1234,0,"['5', '7', '^', 'num_5', 'num_7', '=']",08/09/2018,1,16:20:53,Professional,0,2018-08-09_162053,2.0.10.356,,Emo_Nback_20180527,160,False,All,1.0.0.1180,0,0,"['2', 'num_2', 'right']",2.0.10.252,MRI,2.0.10.356,0,False,Stimuli/,Year 2,59.9955943482,1,
lure,All,32M_HO.bmp,97,PosFace,0-Back,No Match,2,0,17,17,17,,0,No Match,,,,,,,,,,,0,426783,428780,2000,426783,428780,0,428780,428780,500,429279,429279,,,,,,,,,,,"['1', 'num_1', 'left', '2', 'num_2', 'right']",Emo_Nback_20180527_v1-ABCD1234,1,1,Verdana,1,Right,ABCD1234,0,"['5', '7', '^', 'num_5', 'num_7', '=']",08/09/2018,1,16:20:53,Professional,0,2018-08-09_162053,2.0.10.356,,Emo_Nback_20180527,160,False,All,1.0.0.1180,0,0,"['2', 'num_2', 'right']",2.0.10.252,MRI,2.0.10.356,0,False,Stimuli/,Year 2,59.9955943482,1,
nonlure,All,20M_HO.bmp,98,PosFace,0-Back,No Match,2,0,18,18,18,,0,No Match,,,,,,,,,,,0,429288,431280,2000,429288,431280,0,431280,431280,500,431779,431780,,,,,,,,,,,"['1', 'num_1', 'left', '2', 'num_2', 'right']",Emo_Nback_20180527_v1-ABCD1234,1,1,Verdana,1,Right,ABCD1234,0,"['5', '7', '^', 'num_5', 'num_7', '=']",08/09/2018,1,16:20:53,Professional,0,2018-08-09_162053,2.0.10.356,,Emo_Nback_20180527,160,False,All,1.0.0.1180,0,0,"['2', 'num_2', 'right']",2.0.10.252,MRI,2.0.10.356,0,False,Stimuli/,Year 2,59.9955943482,1,
target,All,19F_HO.bmp,99,PosFace,0-Back,Match,2,0,19,19,19,,0,Match,,,,,,,,,,,0,431785,433780,2000,431785,433780,0,433780,433780,500,434280,434280,,,,,,,,,,,"['1', 'num_1', 'left', '2', 'num_2', 'right']",Emo_Nback_20180527_v1-ABCD1234,1,1,Verdana,1,Right,ABCD1234,0,"['5', '7', '^', 'num_5', 'num_7', '=']",08/09/2018,1,16:20:53,Professional,0,2018-08-09_162053,2.0.10.356,,Emo_Nback_20180527,160,False,All,1.0.0.1180,0,0,"['2', 'num_2', 'right']",2.0.10.252,MRI,2.0.10.356,0,False,Stimuli/,Year 2,59.9955943482,1,
nonlure,All,WF007_HO.bmp,100,PosFace,0-Back,No Match,2,0,20,20,20,,0,No Match,,,,,,,,,,,0,434287,436280,2000,434287,436280,0,436280,436280,500,436780,436780,,,,,,,,,,,"['1', 'num_1', 'left', '2', 'num_2', 'right']",Emo_Nback_20180527_v1-ABCD1234,1,1,Verdana,1,Right,ABCD1234,0,"['5', '7', '^', 'num_5', 'num_7', '=']",08/09/2018,1,16:20:53,Professional,0,2018-08-09_162053,2.0.10.356,,Emo_Nback_20180527,160,False,All,1.0.0.1180,0,0,"['2', 'num_2', 'right']",2.0.10.252,MRI,2.0.10.356,0,False,Stimuli/,Year 2,59.9955943482,1,
lure,All,BM06_HO.bmp,101,PosFace,0-Back,No Match,2,0,21,21,21,,0,No Match,,,,,,,,,,,0,436786,438781,2000,436786,438781,0,438781,438781,500,439281,439281,,,,,,,,,,,"['1', 'num_1', 'left', '2', 'num_2', 'right']",Emo_Nback_20180527_v1-ABCD1234,1,1,Verdana,1,Right,ABCD1234,0,"['5', '7', '^', 'num_5', 'num_7', '=']",08/09/2018,1,16:20:53,Professional,0,2018-08-09_162053,2.0.10.356,,Emo_Nback_20180527,160,False,All,1.0.0.1180,0,0,"['2', 'num_2', 'right']",2.0.10.252,MRI,2.0.10.356,0,False,Stimuli/,Year 2,59.9955943482,1,
None,All,None,None,None,Fix15secPROC,,None,0,22,22,22,,0,,,,,,,,,,,,,,,,,,,,,,,,,,,,,439282,15000,454283,439282,454283,"['1', 'num_1', 'left', '2', 'num_2', 'right']",Emo_Nback_20180527_v1-ABCD1234,1,1,Verdana,1,Right,ABCD1234,0,"['5', '7', '^', 'num_5', 'num_7', '=']",08/09/2018,1,16:20:53,Professional,0,2018-08-09_162053,2.0.10.356,,Emo_Nback_20180527,160,False,All,1.0.0.1180,0,0,"['2', 'num_2', 'right']",2.0.10.252,MRI,2.0.10.356,0,False,Stimuli/,Year 2,59.9955943482,1,
None,All,None,None,Faces,Cue2Back,,None,0,23,23,23,,0,,454783,454783,457284,457284,454289,454289,454783,2500,454783,500,,,,,,,,,,,,,,,,,,,,,,,"['1', 'num_1', 'left', '2', 'num_2', 'right']",Emo_Nback_20180527_v1-ABCD1234,1,1,Verdana,1,Right,ABCD1234,0,"['5', '7', '^', 'num_5', 'num_7', '=']",08/09/2018,1,16:20:53,Professional,0,2018-08-09_162053,2.0.10.356,,Emo_Nback_20180527,160,False,All,1.0.0.1180,0,0,"['2', 'num_2', 'right']",2.0.10.252,MRI,2.0.10.356,0,False,Stimuli/,Year 2,59.9955943482,1,
nonlure,All,LM211_NC.bmp,102,NeutFace,2-Back,No Match,3,0,24,24,24,,0,No Match,,,,,,,,,,,0,457293,459284,2000,457294,459284,0,459284,459284,500,459783,459783,,,,,,,,,,,"['1', 'num_1', 'left', '2', 'num_2', 'right']",Emo_Nback_20180527_v1-ABCD1234,1,1,Verdana,1,Right,ABCD1234,0,"['5', '7', '^', 'num_5', 'num_7', '=']",08/09/2018,1,16:20:53,Professional,0,2018-08-09_162053,2.0.10.356,,Emo_Nback_20180527,160,False,All,1.0.0.1180,0,0,"['2', 'num_2', 'right']",2.0.10.252,MRI,2.0.10.356,0,False,Stimuli/,Year 2,59.9955943482,1,
nonlure,All,AF216_NC.bmp,103,NeutFace,2-Back,No Match,3,0,25,25,25,,0,No Match,,,,,,,,,,,0,459793,461784,2000,459793,461784,0,461784,461784,500,462284,462284,,,,,,,,,,,"['1', 'num_1', 'left', '2', 'num_2', 'right']",Emo_Nback_20180527_v1-ABCD1234,1,1,Verdana,1,Right,ABCD1234,0,"['5', '7', '^', 'num_5', 'num_7', '=']",08/09/2018,1,16:20:53,Professional,0,2018-08-09_162053,2.0.10.356,,Emo_Nback_20180527,160,False,All,1.0.0.1180,0,0,"['2', 'num_2', 'right']",2.0.10.252,MRI,2.0.10.356,0,False,Stimuli/,Year 2,59.9955943482,1,
lure,All,AF216_NC.bmp,104,NeutFace,2-Back,No Match,3,0,26,26,26,,0,No Match,,,,,,,,,,,0,462289,464284,2000,462289,464284,0,464284,464284,500,464784,464784,,,,,,,,,,,"['1', 'num_1', 'left', '2', 'num_2', 'right']",Emo_Nback_20180527_v1-ABCD1234,1,1,Verdana,1,Right,ABCD1234,0,"['5', '7', '^', 'num_5', 'num_7', '=']",08/09/2018,1,16:20:53,Professional,0,2018-08-09_162053,2.0.10.356,,Emo_Nback_20180527,160,False,All,1.0.0.1180,0,0,"['2', 'num_2', 'right']",2.0.10.252,MRI,2.0.10.356,0,False,Stimuli/,Year 2,59.9955943482,1,
nonlure,All,WM04_NC.bmp,105,NeutFace,2-Back,No Match,3,0,27,27,27,,0,No Match,,,,,,,,,,,0,464792,466785,2000,464792,466785,0,466785,466785,500,467284,467284,,,,,,,,,,,"['1', 'num_1', 'left', '2', 'num_2', 'right']",Emo_Nback_20180527_v1-ABCD1234,1,1,Verdana,1,Right,ABCD1234,0,"['5', '7', '^', 'num_5', 'num_7', '=']",08/09/2018,1,16:20:53,Professional,0,2018-08-09_162053,2.0.10.356,,Emo_Nback_20180527,160,False,All,1.0.0.1180,0,0,"['2', 'num_2', 'right']",2.0.10.252,MRI,2.0.10.356,0,False,Stimuli/,Year 2,59.9955943482,1,
lure,All,WM04_NC.bmp,106,NeutFace,2-Back,No Match,3,0,28,28,28,,0,No Match,,,,,,,,,,,0,467289,469285,2000,467290,469285,0,469285,469285,500,469785,469785,,,,,,,,,,,"['1', 'num_1', 'left', '2', 'num_2', 'right']",Emo_Nback_20180527_v1-ABCD1234,1,1,Verdana,1,Right,ABCD1234,0,"['5', '7', '^', 'num_5', 'num_7', '=']",08/09/2018,1,16:20:53,Professional,0,2018-08-09_162053,2.0.10.356,,Emo_Nback_20180527,160,False,All,1.0.0.1180,0,0,"['2', 'num_2', 'right']",2.0.10.252,MRI,2.0.10.356,0,False,Stimuli/,Year 2,59.9955943482,1,
nonlure,All,14F_NC.bmp,107,NeutFace,2-Back,No Match,3,0,29,29,29,,0,No Match,,,,,,,,,,,0,469795,471785,2000,469795,471785,0,471785,471785,500,472285,472285,,,,,,,,,,,"['1', 'num_1', 'left', '2', 'num_2', 'right']",Emo_Nback_20180527_v1-ABCD1234,1,1,Verdana,1,Right,ABCD1234,0,"['5', '7', '^', 'num_5', 'num_7', '=']",08/09/2018,1,16:20:53,Professional,0,2018-08-09_162053,2.0.10.356,,Emo_Nback_20180527,160,False,All,1.0.0.1180,0,0,"['2', 'num_2', 'right']",2.0.10.252,MRI,2.0.10.356,0,False,Stimuli/,Year 2,59.9955943482,1,
nonlure,All,AM210_NC.bmp,108,NeutFace,2-Back,No Match,3,0,30,30,30,,0,No Match,,,,,,,,,,,0,472295,474286,2000,472295,474286,0,474286,474286,500,474786,474786,,,,,,,,,,,"['1', 'num_1', 'left', '2', 'num_2', 'right']",Emo_Nback_20180527_v1-ABCD1234,1,1,Verdana,1,Right,ABCD1234,0,"['5', '7', '^', 'num_5', 'num_7', '=']",08/09/2018,1,16:20:53,Professional,0,2018-08-09_162053,2.0.10.356,,Emo_Nback_20180527,160,False,All,1.0.0.1180,0,0,"['2', 'num_2', 'right']",2.0.10.252,MRI,2.0.10.356,0,False,Stimuli/,Year 2,59.9955943482,1,
nonlure,All,WF02_NC.bmp,109,NeutFace,2-Back,No Match,3,0,31,31,31,,0,No Match,,,,,,,,,,,0,474794,476786,2000,474795,476786,0,476786,476786,500,477286,477286,,,,,,,,,,,"['1', 'num_1', 'left', '2', 'num_2', 'right']",Emo_Nback_20180527_v1-ABCD1234,1,1,Verdana,1,Right,ABCD1234,0,"['5', '7', '^', 'num_5', 'num_7', '=']",08/09/2018,1,16:20:53,Professional,0,2018-08-09_162053,2.0.10.356,,Emo_Nback_20180527,160,False,All,1.0.0.1180,0,0,"['2', 'num_2', 'right']",2.0.10.252,MRI,2.0.10.356,0,False,Stimuli/,Year 2,59.9955943482,1,
target,All,AM210_NC.bmp,110,NeutFace,2-Back,Match,3,0,32,32,32,,0,Match,,,,,,,,,,,0,477291,479286,2000,477292,479286,0,479286,479286,500,479786,479786,,,,,,,,,,,"['1', 'num_1', 'left', '2', 'num_2', 'right']",Emo_Nback_20180527_v1-ABCD1234,1,1,Verdana,1,Right,ABCD1234,0,"['5', '7', '^', 'num_5', 'num_7', '=']",08/09/2018,1,16:20:53,Professional,0,2018-08-09_162053,2.0.10.356,,Emo_Nback_20180527,160,False,All,1.0.0.1180,0,0,"['2', 'num_2', 'right']",2.0.10.252,MRI,2.0.10.356,0,False,Stimuli/,Year 2,59.9955943482,1,
target,All,WF02_NC.bmp,111,NeutFace,2-Back,Match,3,0,33,33,33,,0,Match,,,,,,,,,,,0,479791,481786,2000,479792,481786,0,481786,481786,500,482286,482287,,,,,,,,,,,"['1', 'num_1', 'left', '2', 'num_2', 'right']",Emo_Nback_20180527_v1-ABCD1234,1,1,Verdana,1,Right,ABCD1234,0,"['5', '7', '^', 'num_5', 'num_7', '=']",08/09/2018,1,16:20:53,Professional,0,2018-08-09_162053,2.0.10.356,,Emo_Nback_20180527,160,False,All,1.0.0.1180,0,0,"['2', 'num_2', 'right']",2.0.10.252,MRI,2.0.10.356,0,False,Stimuli/,Year 2,59.9955943482,1,
target,All,BF10_FO.bmp,None,Faces,Cue0Back,,None,0,34,34,34,,0,,482787,,,,482295,482295,482787,,,500,,,,,,,,,,,,,482787,485287,482787,485287,2500,,,,,,"['1', 'num_1', 'left', '2', 'num_2', 'right']",Emo_Nback_20180527_v1-ABCD1234,1,1,Verdana,1,Right,ABCD1234,0,"['5', '7', '^', 'num_5', 'num_7', '=']",08/09/2018,1,16:20:53,Professional,0,2018-08-09_162053,2.0.10.356,,Emo_Nback_20180527,160,False,All,1.0.0.1180,0,0,"['2', 'num_2', 'right']",2.0.10.252,MRI,2.0.10.356,0,False,Stimuli/,Year 2,59.9955943482,1,
target,All,BF10_FO.bmp,112,NegFace,0-Back,Match,4,0,35,35,35,,0,Match,,,,,,,,,,,0,485292,487287,2000,485292,487287,0,487287,487287,500,487787,487787,,,,,,,,,,,"['1', 'num_1', 'left', '2', 'num_2', 'right']",Emo_Nback_20180527_v1-ABCD1234,1,1,Verdana,1,Right,ABCD1234,0,"['5', '7', '^', 'num_5', 'num_7', '=']",08/09/2018,1,16:20:53,Professional,0,2018-08-09_162053,2.0.10.356,,Emo_Nback_20180527,160,False,All,1.0.0.1180,0,0,"['2', 'num_2', 'right']",2.0.10.252,MRI,2.0.10.356,0,False,Stimuli/,Year 2,59.9955943482,1,
nonlure,All,5F_FO.bmp,113,NegFace,0-Back,No Match,4,0,36,36,36,,0,No Match,,,,,,,,,,,0,487797,489787,2000,487798,489787,0,489787,489787,500,490287,490287,,,,,,,,,,,"['1', 'num_1', 'left', '2', 'num_2', 'right']",Emo_Nback_20180527_v1-ABCD1234,1,1,Verdana,1,Right,ABCD1234,0,"['5', '7', '^', 'num_5', 'num_7', '=']",08/09/2018,1,16:20:53,Professional,0,2018-08-09_162053,2.0.10.356,,Emo_Nback_20180527,160,False,All,1.0.0.1180,0,0,"['2', 'num_2', 'right']",2.0.10.252,MRI,2.0.10.356,0,False,Stimuli/,Year 2,59.9955943482,1,
target,All,BF10_FO.bmp,114,NegFace,0-Back,Match,4,0,37,37,37,,0,Match,,,,,,,,,,,0,490293,492288,2000,490293,492288,0,492288,492288,500,492788,492788,,,,,,,,,,,"['1', 'num_1', 'left', '2', 'num_2', 'right']",Emo_Nback_20180527_v1-ABCD1234,1,1,Verdana,1,Right,ABCD1234,0,"['5', '7', '^', 'num_5', 'num_7', '=']",08/09/2018,1,16:20:53,Professional,0,2018-08-09_162053,2.0.10.356,,Emo_Nback_20180527,160,False,All,1.0.0.1180,0,0,"['2', 'num_2', 'right']",2.0.10.252,MRI,2.0.10.356,0,False,Stimuli/,Year 2,59.9955943482,1,
nonlure,All,33M_FO.bmp,115,NegFace,0-Back,No Match,4,0,38,38,38,,0,No Match,,,,,,,,,,,0,492797,494788,2000,492797,494788,0,494788,494788,500,495288,495288,,,,,,,,,,,"['1', 'num_1', 'left', '2', 'num_2', 'right']",Emo_Nback_20180527_v1-ABCD1234,1,1,Verdana,1,Right,ABCD1234,0,"['5', '7', '^', 'num_5', 'num_7', '=']",08/09/2018,1,16:20:53,Professional,0,2018-08-09_162053,2.0.10.356,,Emo_Nback_20180527,160,False,All,1.0.0.1180,0,0,"['2', 'num_2', 'right']",2.0.10.252,MRI,2.0.10.356,0,False,Stimuli/,Year 2,59.9955943482,1,
nonlure,All,43M_FO.bmp,116,NegFace,0-Back,No Match,4,0,39,39,39,,0,No Match,,,,,,,,,,,0,495296,497289,2000,495297,497289,0,497289,497289,500,497789,497789,,,,,,,,,,,"['1', 'num_1', 'left', '2', 'num_2', 'right']",Emo_Nback_20180527_v1-ABCD1234,1,1,Verdana,1,Right,ABCD1234,0,"['5', '7', '^', 'num_5', 'num_7', '=']",08/09/2018,1,16:20:53,Professional,0,2018-08-09_162053,2.0.10.356,,Emo_Nback_20180527,160,False,All,1.0.0.1180,0,0,"['2', 'num_2', 'right']",2.0.10.252,MRI,2.0.10.356,0,False,Stimuli/,Year 2,59.9955943482,1,
lure,All,43M_FO.bmp,117,NegFace,0-Back,No Match,4,0,40,40,40,,0,No Match,,,,,,,,,,,0,497794,499789,2000,497795,499789,0,499789,499789,500,500289,500289,,,,,,,,,,,"['1', 'num_1', 'left', '2', 'num_2', 'right']",Emo_Nback_20180527_v1-ABCD1234,1,1,Verdana,1,Right,ABCD1234,0,"['5', '7', '^', 'num_5', 'num_7', '=']",08/09/2018,1,16:20:53,Professional,0,2018-08-09_162053,2.0.10.356,,Emo_Nback_20180527,160,False,All,1.0.0.1180,0,0,"['2', 'num_2', 'right']",2.0.10.252,MRI,2.0.10.356,0,False,Stimuli/,Year 2,59.9955943482,1,
nonlure,All,WF034_FO.bmp,118,NegFace,0-Back,No Match,4,0,41,41,41,,0,No Match,,,,,,,,,,,0,500298,502289,2000,500298,502289,0,502289,502290,500,502789,502789,,,,,,,,,,,"['1', 'num_1', 'left', '2', 'num_2', 'right']",Emo_Nback_20180527_v1-ABCD1234,1,1,Verdana,1,Right,ABCD1234,0,"['5', '7', '^', 'num_5', 'num_7', '=']",08/09/2018,1,16:20:53,Professional,0,2018-08-09_162053,2.0.10.356,,Emo_Nback_20180527,160,False,All,1.0.0.1180,0,0,"['2', 'num_2', 'right']",2.0.10.252,MRI,2.0.10.356,0,False,Stimuli/,Year 2,59.9955943482,1,
lure,All,WF034_FO.bmp,119,NegFace,0-Back,No Match,4,0,42,42,42,,0,No Match,,,,,,,,,,,0,502795,504790,2000,502795,504790,0,504790,504790,500,505290,505290,,,,,,,,,,,"['1', 'num_1', 'left', '2', 'num_2', 'right']",Emo_Nback_20180527_v1-ABCD1234,1,1,Verdana,1,Right,ABCD1234,0,"['5', '7', '^', 'num_5', 'num_7', '=']",08/09/2018,1,16:20:53,Professional,0,2018-08-09_162053,2.0.10.356,,Emo_Nback_20180527,160,False,All,1.0.0.1180,0,0,"['2', 'num_2', 'right']",2.0.10.252,MRI,2.0.10.356,0,False,Stimuli/,Year 2,59.9955943482,1,
nonlure,All,BM05_FO.bmp,120,NegFace,0-Back,No Match,4,0,43,43,43,,0,No Match,,,,,,,,,,,0,505297,507290,2000,505298,507290,0,507290,507290,500,507790,507790,,,,,,,,,,,"['1', 'num_1', 'left', '2', 'num_2', 'right']",Emo_Nback_20180527_v1-ABCD1234,1,1,Verdana,1,Right,ABCD1234,0,"['5', '7', '^', 'num_5', 'num_7', '=']",08/09/2018,1,16:20:53,Professional,0,2018-08-09_162053,2.0.10.356,,Emo_Nback_20180527,160,False,All,1.0.0.1180,0,0,"['2', 'num_2', 'right']",2.0.10.252,MRI,2.0.10.356,0,False,Stimuli/,Year 2,59.9955943482,1,
lure,All,BM05_FO.bmp,121,NegFace,0-Back,No Match,4,0,44,44,44,,0,No Match,,,,,,,,,,,0,507795,509791,2000,507795,509791,0,509790,509791,500,510290,510290,,,,,,,,,,,"['1', 'num_1', 'left', '2', 'num_2', 'right']",Emo_Nback_20180527_v1-ABCD1234,1,1,Verdana,1,Right,ABCD1234,0,"['5', '7', '^', 'num_5', 'num_7', '=']",08/09/2018,1,16:20:53,Professional,0,2018-08-09_162053,2.0.10.356,,Emo_Nback_20180527,160,False,All,1.0.0.1180,0,0,"['2', 'num_2', 'right']",2.0.10.252,MRI,2.0.10.356,0,False,Stimuli/,Year 2,59.9955943482,1,
None,All,None,None,None,Fix15secPROC,,None,0,45,45,45,,0,,,,,,,,,,,,,,,,,,,,,,,,,,,,,510292,15000,525276,510292,525276,"['1', 'num_1', 'left', '2', 'num_2', 'right']",Emo_Nback_20180527_v1-ABCD1234,1,1,Verdana,1,Right,ABCD1234,0,"['5', '7', '^', 'num_5', 'num_7', '=']",08/09/2018,1,16:20:53,Professional,0,2018-08-09_162053,2.0.10.356,,Emo_Nback_20180527,160,False,All,1.0.0.1180,0,0,"['2', 'num_2', 'right']",2.0.10.252,MRI,2.0.10.356,0,False,Stimuli/,Year 2,59.9955943482,1,
None,All,None,None,Faces,Cue2Back,,None,0,46,46,46,,0,,525776,525776,528276,528276,525281,525281,525776,2500,525776,500,,,,,,,,,,,,,,,,,,,,,,,"['1', 'num_1', 'left', '2', 'num_2', 'right']",Emo_Nback_20180527_v1-ABCD1234,1,1,Verdana,1,Right,ABCD1234,0,"['5', '7', '^', 'num_5', 'num_7', '=']",08/09/2018,1,16:20:53,Professional,0,2018-08-09_162053,2.0.10.356,,Emo_Nback_20180527,160,False,All,1.0.0.1180,0,0,"['2', 'num_2', 'right']",2.0.10.252,MRI,2.0.10.356,0,False,Stimuli/,Year 2,59.9955943482,1,
nonlure,All,13F_HO.bmp,122,PosFace,2-Back,No Match,5,0,47,47,47,,0,No Match,,,,,,,,,,,0,528285,530277,2000,528285,530277,0,530277,530277,500,530776,530777,,,,,,,,,,,"['1', 'num_1', 'left', '2', 'num_2', 'right']",Emo_Nback_20180527_v1-ABCD1234,1,1,Verdana,1,Right,ABCD1234,0,"['5', '7', '^', 'num_5', 'num_7', '=']",08/09/2018,1,16:20:53,Professional,0,2018-08-09_162053,2.0.10.356,,Emo_Nback_20180527,160,False,All,1.0.0.1180,0,0,"['2', 'num_2', 'right']",2.0.10.252,MRI,2.0.10.356,0,False,Stimuli/,Year 2,59.9955943482,1,
nonlure,All,29M_HO.bmp,123,PosFace,2-Back,No Match,5,0,48,48,48,,0,No Match,,,,,,,,,,,0,530785,532777,2000,530786,532777,0,532777,532777,500,533277,533277,,,,,,,,,,,"['1', 'num_1', 'left', '2', 'num_2', 'right']",Emo_Nback_20180527_v1-ABCD1234,1,1,Verdana,1,Right,ABCD1234,0,"['5', '7', '^', 'num_5', 'num_7', '=']",08/09/2018,1,16:20:53,Professional,0,2018-08-09_162053,2.0.10.356,,Emo_Nback_20180527,160,False,All,1.0.0.1180,0,0,"['2', 'num_2', 'right']",2.0.10.252,MRI,2.0.10.356,0,False,Stimuli/,Year 2,59.9955943482,1,
target,All,13F_HO.bmp,124,PosFace,2-Back,Match,5,0,49,49,49,,0,Match,,,,,,,,,,,0,533282,535277,2000,533282,535277,0,535277,535277,500,535777,535777,,,,,,,,,,,"['1', 'num_1', 'left', '2', 'num_2', 'right']",Emo_Nback_20180527_v1-ABCD1234,1,1,Verdana,1,Right,ABCD1234,0,"['5', '7', '^', 'num_5', 'num_7', '=']",08/09/2018,1,16:20:53,Professional,0,2018-08-09_162053,2.0.10.356,,Emo_Nback_20180527,160,False,All,1.0.0.1180,0,0,"['2', 'num_2', 'right']",2.0.10.252,MRI,2.0.10.356,0,False,Stimuli/,Year 2,59.9955943482,1,
target,All,29M_HO.bmp,125,PosFace,2-Back,Match,5,0,50,50,50,,0,Match,,,,,,,,,,,0,535782,537778,2000,535783,537778,0,537778,537778,500,538277,538277,,,,,,,,,,,"['1', 'num_1', 'left', '2', 'num_2', 'right']",Emo_Nback_20180527_v1-ABCD1234,1,1,Verdana,1,Right,ABCD1234,0,"['5', '7', '^', 'num_5', 'num_7', '=']",08/09/2018,1,16:20:53,Professional,0,2018-08-09_162053,2.0.10.356,,Emo_Nback_20180527,160,False,All,1.0.0.1180,0,0,"['2', 'num_2', 'right']",2.0.10.252,MRI,2.0.10.356,0,False,Stimuli/,Year 2,59.9955943482,1,
nonlure,All,HF02_HO.bmp,126,PosFace,2-Back,No Match,5,0,51,51,51,,0,No Match,,,,,,,,,,,0,538286,540278,2000,538286,540278,0,540278,540278,500,540778,540778,,,,,,,,,,,"['1', 'num_1', 'left', '2', 'num_2', 'right']",Emo_Nback_20180527_v1-ABCD1234,1,1,Verdana,1,Right,ABCD1234,0,"['5', '7', '^', 'num_5', 'num_7', '=']",08/09/2018,1,16:20:53,Professional,0,2018-08-09_162053,2.0.10.356,,Emo_Nback_20180527,160,False,All,1.0.0.1180,0,0,"['2', 'num_2', 'right']",2.0.10.252,MRI,2.0.10.356,0,False,Stimuli/,Year 2,59.9955943482,1,
lure,All,HF02_HO.bmp,127,PosFace,2-Back,No Match,5,0,52,52,52,,0,No Match,,,,,,,,,,,0,540783,542778,2000,540783,542778,0,542778,542778,500,543278,543278,,,,,,,,,,,"['1', 'num_1', 'left', '2', 'num_2', 'right']",Emo_Nback_20180527_v1-ABCD1234,1,1,Verdana,1,Right,ABCD1234,0,"['5', '7', '^', 'num_5', 'num_7', '=']",08/09/2018,1,16:20:53,Professional,0,2018-08-09_162053,2.0.10.356,,Emo_Nback_20180527,160,False,All,1.0.0.1180,0,0,"['2', 'num_2', 'right']",2.0.10.252,MRI,2.0.10.356,0,False,Stimuli/,Year 2,59.9955943482,1,
nonlure,All,WM01_HO.bmp,128,PosFace,2-Back,No Match,5,0,53,53,53,,0,No Match,,,,,,,,,,,0,543286,545279,2000,543287,545279,0,545279,545279,500,545779,545779,,,,,,,,,,,"['1', 'num_1', 'left', '2', 'num_2', 'right']",Emo_Nback_20180527_v1-ABCD1234,1,1,Verdana,1,Right,ABCD1234,0,"['5', '7', '^', 'num_5', 'num_7', '=']",08/09/2018,1,16:20:53,Professional,0,2018-08-09_162053,2.0.10.356,,Emo_Nback_20180527,160,False,All,1.0.0.1180,0,0,"['2', 'num_2', 'right']",2.0.10.252,MRI,2.0.10.356,0,False,Stimuli/,Year 2,59.9955943482,1,
nonlure,All,WF03_HO.bmp,129,PosFace,2-Back,No Match,5,0,54,54,54,,0,No Match,,,,,,,,,,,0,545787,547779,2000,545787,547779,0,547778,547779,500,548279,548279,,,,,,,,,,,"['1', 'num_1', 'left', '2', 'num_2', 'right']",Emo_Nback_20180527_v1-ABCD1234,1,1,Verdana,1,Right,ABCD1234,0,"['5', '7', '^', 'num_5', 'num_7', '=']",08/09/2018,1,16:20:53,Professional,0,2018-08-09_162053,2.0.10.356,,Emo_Nback_20180527,160,False,All,1.0.0.1180,0,0,"['2', 'num_2', 'right']",2.0.10.252,MRI,2.0.10.356,0,False,Stimuli/,Year 2,59.9955943482,1,
nonlure,All,BM026_HO.bmp,130,PosFace,2-Back,No Match,5,0,55,55,55,,0,No Match,,,,,,,,,,,0,548287,550279,2000,548288,550279,0,550279,550280,500,550779,550779,,,,,,,,,,,"['1', 'num_1', 'left', '2', 'num_2', 'right']",Emo_Nback_20180527_v1-ABCD1234,1,1,Verdana,1,Right,ABCD1234,0,"['5', '7', '^', 'num_5', 'num_7', '=']",08/09/2018,1,16:20:53,Professional,0,2018-08-09_162053,2.0.10.356,,Emo_Nback_20180527,160,False,All,1.0.0.1180,0,0,"['2', 'num_2', 'right']",2.0.10.252,MRI,2.0.10.356,0,False,Stimuli/,Year 2,59.9955943482,1,
lure,All,BM026_HO.bmp,131,PosFace,2-Back,No Match,5,0,56,56,56,,0,No Match,,,,,,,,,,,0,550784,552780,2000,550785,552780,0,552779,552780,500,553279,553279,,,,,,,,,,,"['1', 'num_1', 'left', '2', 'num_2', 'right']",Emo_Nback_20180527_v1-ABCD1234,1,1,Verdana,1,Right,ABCD1234,0,"['5', '7', '^', 'num_5', 'num_7', '=']",08/09/2018,1,16:20:53,Professional,0,2018-08-09_162053,2.0.10.356,,Emo_Nback_20180527,160,False,All,1.0.0.1180,0,0,"['2', 'num_2', 'right']",2.0.10.252,MRI,2.0.10.356,0,False,Stimuli/,Year 2,59.9955943482,1,
None,All,None,None,None,Cue2Back,,6,0,57,57,57,,0,,553780,553780,556280,556280,553286,553286,553780,2500,553780,500,,,,,,,,,,,,,,,,,,,,,,,"['1', 'num_1', 'left', '2', 'num_2', 'right']",Emo_Nback_20180527_v1-ABCD1234,1,1,Verdana,1,Right,ABCD1234,0,"['5', '7', '^', 'num_5', 'num_7', '=']",08/09/2018,1,16:20:53,Professional,0,2018-08-09_162053,2.0.10.356,,Emo_Nback_20180527,160,False,All,1.0.0.1180,0,0,"['2', 'num_2', 'right']",2.0.10.252,MRI,2.0.10.356,0,False,Stimuli/,Year 2,59.9955943482,1,
nonlure,All,PL_034_FOXISLAND.bmp,132,Places,2-Back,No Match,6,0,58,58,58,,0,No Match,,,,,,,,,,,0,556289,558280,2000,556290,558280,0,558280,558280,500,558780,558780,,,,,,,,,,,"['1', 'num_1', 'left', '2', 'num_2', 'right']",Emo_Nback_20180527_v1-ABCD1234,1,1,Verdana,1,Right,ABCD1234,0,"['5', '7', '^', 'num_5', 'num_7', '=']",08/09/2018,1,16:20:53,Professional,0,2018-08-09_162053,2.0.10.356,,Emo_Nback_20180527,160,False,All,1.0.0.1180,0,0,"['2', 'num_2', 'right']",2.0.10.252,MRI,2.0.10.356,0,False,Stimuli/,Year 2,59.9955943482,1,
nonlure,All,PL_044_SCENE01.bmp,133,Places,2-Back,No Match,6,0,59,59,59,,0,No Match,,,,,,,,,,,0,558790,560780,2000,558791,560780,0,560780,560780,500,561280,561280,,,,,,,,,,,"['1', 'num_1', 'left', '2', 'num_2', 'right']",Emo_Nback_20180527_v1-ABCD1234,1,1,Verdana,1,Right,ABCD1234,0,"['5', '7', '^', 'num_5', 'num_7', '=']",08/09/2018,1,16:20:53,Professional,0,2018-08-09_162053,2.0.10.356,,Emo_Nback_20180527,160,False,All,1.0.0.1180,0,0,"['2', 'num_2', 'right']",2.0.10.252,MRI,2.0.10.356,0,False,Stimuli/,Year 2,59.9955943482,1,
lure,All,PL_044_SCENE01.bmp,134,Places,2-Back,No Match,6,0,60,60,60,,0,No Match,,,,,,,,,,,0,561286,563281,2000,561286,563281,0,563281,563281,500,563781,563781,,,,,,,,,,,"['1', 'num_1', 'left', '2', 'num_2', 'right']",Emo_Nback_20180527_v1-ABCD1234,1,1,Verdana,1,Right,ABCD1234,0,"['5', '7', '^', 'num_5', 'num_7', '=']",08/09/2018,1,16:20:53,Professional,0,2018-08-09_162053,2.0.10.356,,Emo_Nback_20180527,160,False,All,1.0.0.1180,0,0,"['2', 'num_2', 'right']",2.0.10.252,MRI,2.0.10.356,0,False,Stimuli/,Year 2,59.9955943482,1,
nonlure,All,PL_041_LEXINGTON17.bmp,135,Places,2-Back,No Match,6,0,61,61,61,,0,No Match,,,,,,,,,,,0,563791,565781,2000,563791,565781,0,565781,565781,500,566281,566281,,,,,,,,,,,"['1', 'num_1', 'left', '2', 'num_2', 'right']",Emo_Nback_20180527_v1-ABCD1234,1,1,Verdana,1,Right,ABCD1234,0,"['5', '7', '^', 'num_5', 'num_7', '=']",08/09/2018,1,16:20:53,Professional,0,2018-08-09_162053,2.0.10.356,,Emo_Nback_20180527,160,False,All,1.0.0.1180,0,0,"['2', 'num_2', 'right']",2.0.10.252,MRI,2.0.10.356,0,False,Stimuli/,Year 2,59.9955943482,1,
nonlure,All,PL_043_LEXINGTON19.bmp,136,Places,2-Back,No Match,6,0,62,62,62,,0,No Match,,,,,,,,,,,0,566291,568282,2000,566291,568282,0,568281,568282,500,568782,568782,,,,,,,,,,,"['1', 'num_1', 'left', '2', 'num_2', 'right']",Emo_Nback_20180527_v1-ABCD1234,1,1,Verdana,1,Right,ABCD1234,0,"['5', '7', '^', 'num_5', 'num_7', '=']",08/09/2018,1,16:20:53,Professional,0,2018-08-09_162053,2.0.10.356,,Emo_Nback_20180527,160,False,All,1.0.0.1180,0,0,"['2', 'num_2', 'right']",2.0.10.252,MRI,2.0.10.356,0,False,Stimuli/,Year 2,59.9955943482,1,
target,All,PL_041_LEXINGTON17.bmp,137,Places,2-Back,Match,6,0,63,63,63,,0,Match,,,,,,,,,,,0,568785,570782,2000,568785,570782,0,570781,570782,500,571282,571282,,,,,,,,,,,"['1', 'num_1', 'left', '2', 'num_2', 'right']",Emo_Nback_20180527_v1-ABCD1234,1,1,Verdana,1,Right,ABCD1234,0,"['5', '7', '^', 'num_5', 'num_7', '=']",08/09/2018,1,16:20:53,Professional,0,2018-08-09_162053,2.0.10.356,,Emo_Nback_20180527,160,False,All,1.0.0.1180,0,0,"['2', 'num_2', 'right']",2.0.10.252,MRI,2.0.10.356,0,False,Stimuli/,Year 2,59.9955943482,1,
target,All,PL_043_LEXINGTON19.bmp,138,Places,2-Back,Match,6,0,64,64,64,,0,Match,,,,,,,,,,,0,571287,573282,2000,571288,573282,0,573282,573282,500,573782,573782,,,,,,,,,,,"['1', 'num_1', 'left', '2', 'num_2', 'right']",Emo_Nback_20180527_v1-ABCD1234,1,1,Verdana,1,Right,ABCD1234,0,"['5', '7', '^', 'num_5', 'num_7', '=']",08/09/2018,1,16:20:53,Professional,0,2018-08-09_162053,2.0.10.356,,Emo_Nback_20180527,160,False,All,1.0.0.1180,0,0,"['2', 'num_2', 'right']",2.0.10.252,MRI,2.0.10.356,0,False,Stimuli/,Year 2,59.9955943482,1,
nonlure,All,PL_040_LEXINGTON16.bmp,139,Places,2-Back,No Match,6,0,65,65,65,,0,No Match,,,,,,,,,,,0,573792,575782,2000,573792,575782,0,575782,575782,500,576283,576283,,,,,,,,,,,"['1', 'num_1', 'left', '2', 'num_2', 'right']",Emo_Nback_20180527_v1-ABCD1234,1,1,Verdana,1,Right,ABCD1234,0,"['5', '7', '^', 'num_5', 'num_7', '=']",08/09/2018,1,16:20:53,Professional,0,2018-08-09_162053,2.0.10.356,,Emo_Nback_20180527,160,False,All,1.0.0.1180,0,0,"['2', 'num_2', 'right']",2.0.10.252,MRI,2.0.10.356,0,False,Stimuli/,Year 2,59.9955943482,1,
lure,All,PL_040_LEXINGTON16.bmp,140,Places,2-Back,No Match,6,0,66,66,66,,0,No Match,,,,,,,,,,,0,576288,578283,2000,576288,578283,0,578283,578283,500,578783,578783,,,,,,,,,,,"['1', 'num_1', 'left', '2', 'num_2', 'right']",Emo_Nback_20180527_v1-ABCD1234,1,1,Verdana,1,Right,ABCD1234,0,"['5', '7', '^', 'num_5', 'num_7', '=']",08/09/2018,1,16:20:53,Professional,0,2018-08-09_162053,2.0.10.356,,Emo_Nback_20180527,160,False,All,1.0.0.1180,0,0,"['2', 'num_2', 'right']",2.0.10.252,MRI,2.0.10.356,0,False,Stimuli/,Year 2,59.9955943482,1,
nonlure,All,o89.1.bmp,141,Places,2-Back,No Match,6,0,67,67,67,,0,No Match,,,,,,,,,,,0,578791,580783,2000,578791,580783,0,580783,580783,500,581283,581284,,,,,,,,,,,"['1', 'num_1', 'left', '2', 'num_2', 'right']",Emo_Nback_20180527_v1-ABCD1234,1,1,Verdana,1,Right,ABCD1234,0,"['5', '7', '^', 'num_5', 'num_7', '=']",08/09/2018,1,16:20:53,Professional,0,2018-08-09_162053,2.0.10.356,,Emo_Nback_20180527,160,False,All,1.0.0.1180,0,0,"['2', 'num_2', 'right']",2.0.10.252,MRI,2.0.10.356,0,False,Stimuli/,Year 2,59.9955943482,1,
None,All,None,None,None,Fix15secPROC,,None,0,68,68,68,,0,,,,,,,,,,,,,,,,,,,,,,,,,,,,,581286,15000,596286,581286,596286,"['1', 'num_1', 'left', '2', 'num_2', 'right']",Emo_Nback_20180527_v1-ABCD1234,1,1,Verdana,1,Right,ABCD1234,0,"['5', '7', '^', 'num_5', 'num_7', '=']",08/09/2018,1,16:20:53,Professional,0,2018-08-09_162053,2.0.10.356,,Emo_Nback_20180527,160,False,All,1.0.0.1180,0,0,"['2', 'num_2', 'right']",2.0.10.252,MRI,2.0.10.356,0,False,Stimuli/,Year 2,59.9955943482,1,
target,All,LF209_NC.bmp,None,Faces,Cue0Back,,7,0,69,69,69,,0,,596786,,,,596295,596295,596786,,,500,,,,,,,,,,,,,596786,599286,596786,599286,2500,,,,,,"['1', 'num_1', 'left', '2', 'num_2', 'right']",Emo_Nback_20180527_v1-ABCD1234,1,1,Verdana,1,Right,ABCD1234,0,"['5', '7', '^', 'num_5', 'num_7', '=']",08/09/2018,1,16:20:53,Professional,0,2018-08-09_162053,2.0.10.356,,Emo_Nback_20180527,160,False,All,1.0.0.1180,0,0,"['2', 'num_2', 'right']",2.0.10.252,MRI,2.0.10.356,0,False,Stimuli/,Year 2,59.9955943482,1,
nonlure,All,BM04_NC.bmp,142,NeutFace,0-Back,No Match,7,0,70,70,70,,0,No Match,,,,,,,,,,,0,599295,601286,2000,599295,601286,0,601286,601287,500,601786,601786,,,,,,,,,,,"['1', 'num_1', 'left', '2', 'num_2', 'right']",Emo_Nback_20180527_v1-ABCD1234,1,1,Verdana,1,Right,ABCD1234,0,"['5', '7', '^', 'num_5', 'num_7', '=']",08/09/2018,1,16:20:53,Professional,0,2018-08-09_162053,2.0.10.356,,Emo_Nback_20180527,160,False,All,1.0.0.1180,0,0,"['2', 'num_2', 'right']",2.0.10.252,MRI,2.0.10.356,0,False,Stimuli/,Year 2,59.9955943482,1,
nonlure,All,AM04_NC.bmp,143,NeutFace,0-Back,No Match,7,0,71,71,71,,0,No Match,,,,,,,,,,,0,601795,603787,2000,601795,603787,0,603787,603787,500,604286,604286,,,,,,,,,,,"['1', 'num_1', 'left', '2', 'num_2', 'right']",Emo_Nback_20180527_v1-ABCD1234,1,1,Verdana,1,Right,ABCD1234,0,"['5', '7', '^', 'num_5', 'num_7', '=']",08/09/2018,1,16:20:53,Professional,0,2018-08-09_162053,2.0.10.356,,Emo_Nback_20180527,160,False,All,1.0.0.1180,0,0,"['2', 'num_2', 'right']",2.0.10.252,MRI,2.0.10.356,0,False,Stimuli/,Year 2,59.9955943482,1,
target,All,LF209_NC.bmp,144,NeutFace,0-Back,Match,7,0,72,72,72,,0,Match,,,,,,,,,,,0,604292,606287,2000,604292,606287,0,606287,606287,500,606787,606787,,,,,,,,,,,"['1', 'num_1', 'left', '2', 'num_2', 'right']",Emo_Nback_20180527_v1-ABCD1234,1,1,Verdana,1,Right,ABCD1234,0,"['5', '7', '^', 'num_5', 'num_7', '=']",08/09/2018,1,16:20:53,Professional,0,2018-08-09_162053,2.0.10.356,,Emo_Nback_20180527,160,False,All,1.0.0.1180,0,0,"['2', 'num_2', 'right']",2.0.10.252,MRI,2.0.10.356,0,False,Stimuli/,Year 2,59.9955943482,1,
lure,All,BM04_NC.bmp,145,NeutFace,0-Back,No Match,7,0,73,73,73,,0,No Match,,,,,,,,,,,0,606792,608788,2000,606792,608788,0,608787,608788,500,609287,609287,,,,,,,,,,,"['1', 'num_1', 'left', '2', 'num_2', 'right']",Emo_Nback_20180527_v1-ABCD1234,1,1,Verdana,1,Right,ABCD1234,0,"['5', '7', '^', 'num_5', 'num_7', '=']",08/09/2018,1,16:20:53,Professional,0,2018-08-09_162053,2.0.10.356,,Emo_Nback_20180527,160,False,All,1.0.0.1180,0,0,"['2', 'num_2', 'right']",2.0.10.252,MRI,2.0.10.356,0,False,Stimuli/,Year 2,59.9955943482,1,
target,All,LF209_NC.bmp,146,NeutFace,0-Back,Match,7,0,74,74,74,,0,Match,,,,,,,,,,,0,609293,611288,2000,609293,611288,0,611287,611288,500,611787,611787,,,,,,,,,,,"['1', 'num_1', 'left', '2', 'num_2', 'right']",Emo_Nback_20180527_v1-ABCD1234,1,1,Verdana,1,Right,ABCD1234,0,"['5', '7', '^', 'num_5', 'num_7', '=']",08/09/2018,1,16:20:53,Professional,0,2018-08-09_162053,2.0.10.356,,Emo_Nback_20180527,160,False,All,1.0.0.1180,0,0,"['2', 'num_2', 'right']",2.0.10.252,MRI,2.0.10.356,0,False,Stimuli/,Year 2,59.9955943482,1,
nonlure,All,AF235_NC.bmp,147,NeutFace,0-Back,No Match,7,0,75,75,75,,0,No Match,,,,,,,,,,,0,611793,613788,2000,611793,613788,0,613788,613788,500,614288,614288,,,,,,,,,,,"['1', 'num_1', 'left', '2', 'num_2', 'right']",Emo_Nback_20180527_v1-ABCD1234,1,1,Verdana,1,Right,ABCD1234,0,"['5', '7', '^', 'num_5', 'num_7', '=']",08/09/2018,1,16:20:53,Professional,0,2018-08-09_162053,2.0.10.356,,Emo_Nback_20180527,160,False,All,1.0.0.1180,0,0,"['2', 'num_2', 'right']",2.0.10.252,MRI,2.0.10.356,0,False,Stimuli/,Year 2,59.9955943482,1,
lure,All,AM04_NC.bmp,148,NeutFace,0-Back,No Match,7,0,76,76,76,,0,No Match,,,,,,,,,,,0,614293,616288,2000,614294,616288,0,616288,616288,500,616788,616788,,,,,,,,,,,"['1', 'num_1', 'left', '2', 'num_2', 'right']",Emo_Nback_20180527_v1-ABCD1234,1,1,Verdana,1,Right,ABCD1234,0,"['5', '7', '^', 'num_5', 'num_7', '=']",08/09/2018,1,16:20:53,Professional,0,2018-08-09_162053,2.0.10.356,,Emo_Nback_20180527,160,False,All,1.0.0.1180,0,0,"['2', 'num_2', 'right']",2.0.10.252,MRI,2.0.10.356,0,False,Stimuli/,Year 2,59.9955943482,1,
nonlure,All,WM036_NC.bmp,149,NeutFace,0-Back,No Match,7,0,77,77,77,,0,No Match,,,,,,,,,,,0,616798,618789,2000,616799,618789,0,618788,618789,500,619289,619289,,,,,,,,,,,"['1', 'num_1', 'left', '2', 'num_2', 'right']",Emo_Nback_20180527_v1-ABCD1234,1,1,Verdana,1,Right,ABCD1234,0,"['5', '7', '^', 'num_5', 'num_7', '=']",08/09/2018,1,16:20:53,Professional,0,2018-08-09_162053,2.0.10.356,,Emo_Nback_20180527,160,False,All,1.0.0.1180,0,0,"['2', 'num_2', 'right']",2.0.10.252,MRI,2.0.10.356,0,False,Stimuli/,Year 2,59.9955943482,1,
lure,All,WM036_NC.bmp,150,NeutFace,0-Back,No Match,7,0,78,78,78,,0,No Match,,,,,,,,,,,0,619294,621289,2000,619294,621289,0,621289,621289,500,621789,621789,,,,,,,,,,,"['1', 'num_1', 'left', '2', 'num_2', 'right']",Emo_Nback_20180527_v1-ABCD1234,1,1,Verdana,1,Right,ABCD1234,0,"['5', '7', '^', 'num_5', 'num_7', '=']",08/09/2018,1,16:20:53,Professional,0,2018-08-09_162053,2.0.10.356,,Emo_Nback_20180527,160,False,All,1.0.0.1180,0,0,"['2', 'num_2', 'right']",2.0.10.252,MRI,2.0.10.356,0,False,Stimuli/,Year 2,59.9955943482,1,
nonlure,All,BF201_NC.bmp,151,NeutFace,0-Back,No Match,7,0,79,79,79,,0,No Match,,,,,,,,,,,0,621797,623789,2000,621798,623789,0,623789,623789,500,624289,624289,,,,,,,,,,,"['1', 'num_1', 'left', '2', 'num_2', 'right']",Emo_Nback_20180527_v1-ABCD1234,1,1,Verdana,1,Right,ABCD1234,0,"['5', '7', '^', 'num_5', 'num_7', '=']",08/09/2018,1,16:20:53,Professional,0,2018-08-09_162053,2.0.10.356,,Emo_Nback_20180527,160,False,All,1.0.0.1180,0,0,"['2', 'num_2', 'right']",2.0.10.252,MRI,2.0.10.356,0,False,Stimuli/,Year 2,59.9955943482,1,
target,All,PL_047_SCENE04.bmp,None,Place,Cue0Back,,8,0,80,80,80,,0,,624790,,,,624300,624300,624790,,,500,,,,,,,,,,,,,624790,627289,624790,627289,2500,,,,,,"['1', 'num_1', 'left', '2', 'num_2', 'right']",Emo_Nback_20180527_v1-ABCD1234,1,1,Verdana,1,Right,ABCD1234,0,"['5', '7', '^', 'num_5', 'num_7', '=']",08/09/2018,1,16:20:53,Professional,0,2018-08-09_162053,2.0.10.356,,Emo_Nback_20180527,160,False,All,1.0.0.1180,0,0,"['2', 'num_2', 'right']",2.0.10.252,MRI,2.0.10.356,0,False,Stimuli/,Year 2,59.9955943482,1,
nonlure,All,PL_046_SCENE03.bmp,152,Place,0-Back,No Match,8,0,81,81,81,,0,No Match,,,,,,,,,,,0,627299,629290,2000,627299,629290,0,629290,629290,500,629790,629790,,,,,,,,,,,"['1', 'num_1', 'left', '2', 'num_2', 'right']",Emo_Nback_20180527_v1-ABCD1234,1,1,Verdana,1,Right,ABCD1234,0,"['5', '7', '^', 'num_5', 'num_7', '=']",08/09/2018,1,16:20:53,Professional,0,2018-08-09_162053,2.0.10.356,,Emo_Nback_20180527,160,False,All,1.0.0.1180,0,0,"['2', 'num_2', 'right']",2.0.10.252,MRI,2.0.10.356,0,False,Stimuli/,Year 2,59.9955943482,1,
nonlure,All,PL_045_SCENE02.bmp,153,Place,0-Back,No Match,8,0,82,82,82,,0,No Match,,,,,,,,,,,0,629799,631791,2000,629799,631791,0,631790,631791,500,632290,632290,,,,,,,,,,,"['1', 'num_1', 'left', '2', 'num_2', 'right']",Emo_Nback_20180527_v1-ABCD1234,1,1,Verdana,1,Right,ABCD1234,0,"['5', '7', '^', 'num_5', 'num_7', '=']",08/09/2018,1,16:20:53,Professional,0,2018-08-09_162053,2.0.10.356,,Emo_Nback_20180527,160,False,All,1.0.0.1180,0,0,"['2', 'num_2', 'right']",2.0.10.252,MRI,2.0.10.356,0,False,Stimuli/,Year 2,59.9955943482,1,
lure,All,PL_046_SCENE03.bmp,154,Place,0-Back,No Match,8,0,83,83,83,,0,No Match,,,,,,,,,,,0,632296,634291,2000,632296,634291,0,634291,634291,500,634790,634791,,,,,,,,,,,"['1', 'num_1', 'left', '2', 'num_2', 'right']",Emo_Nback_20180527_v1-ABCD1234,1,1,Verdana,1,Right,ABCD1234,0,"['5', '7', '^', 'num_5', 'num_7', '=']",08/09/2018,1,16:20:53,Professional,0,2018-08-09_162053,2.0.10.356,,Emo_Nback_20180527,160,False,All,1.0.0.1180,0,0,"['2', 'num_2', 'right']",2.0.10.252,MRI,2.0.10.356,0,False,Stimuli/,Year 2,59.9955943482,1,
nonlure,All,PL_048_SCENE05.bmp,155,Place,0-Back,No Match,8,0,84,84,84,,0,No Match,,,,,,,,,,,0,634799,636792,2000,634800,636792,0,636792,636792,500,637291,637291,,,,,,,,,,,"['1', 'num_1', 'left', '2', 'num_2', 'right']",Emo_Nback_20180527_v1-ABCD1234,1,1,Verdana,1,Right,ABCD1234,0,"['5', '7', '^', 'num_5', 'num_7', '=']",08/09/2018,1,16:20:53,Professional,0,2018-08-09_162053,2.0.10.356,,Emo_Nback_20180527,160,False,All,1.0.0.1180,0,0,"['2', 'num_2', 'right']",2.0.10.252,MRI,2.0.10.356,0,False,Stimuli/,Year 2,59.9955943482,1,
lure,All,PL_045_SCENE02.bmp,156,Place,0-Back,No Match,8,0,85,85,85,,0,No Match,,,,,,,,,,,0,637296,639291,2000,637296,639291,0,639291,639291,500,639792,639792,,,,,,,,,,,"['1', 'num_1', 'left', '2', 'num_2', 'right']",Emo_Nback_20180527_v1-ABCD1234,1,1,Verdana,1,Right,ABCD1234,0,"['5', '7', '^', 'num_5', 'num_7', '=']",08/09/2018,1,16:20:53,Professional,0,2018-08-09_162053,2.0.10.356,,Emo_Nback_20180527,160,False,All,1.0.0.1180,0,0,"['2', 'num_2', 'right']",2.0.10.252,MRI,2.0.10.356,0,False,Stimuli/,Year 2,59.9955943482,1,
target,All,PL_047_SCENE04.bmp,157,Place,0-Back,Match,8,0,86,86,86,,0,Match,,,,,,,,,,,0,639797,641791,2000,639797,641791,0,641791,641791,500,642292,642292,,,,,,,,,,,"['1', 'num_1', 'left', '2', 'num_2', 'right']",Emo_Nback_20180527_v1-ABCD1234,1,1,Verdana,1,Right,ABCD1234,0,"['5', '7', '^', 'num_5', 'num_7', '=']",08/09/2018,1,16:20:53,Professional,0,2018-08-09_162053,2.0.10.356,,Emo_Nback_20180527,160,False,All,1.0.0.1180,0,0,"['2', 'num_2', 'right']",2.0.10.252,MRI,2.0.10.356,0,False,Stimuli/,Year 2,59.9955943482,1,
target,All,PL_047_SCENE04.bmp,158,Place,0-Back,Match,8,0,87,87,87,,0,Match,,,,,,,,,,,0,642297,644292,2000,642297,644292,0,644292,644292,500,644776,644776,,,,,,,,,,,"['1', 'num_1', 'left', '2', 'num_2', 'right']",Emo_Nback_20180527_v1-ABCD1234,1,1,Verdana,1,Right,ABCD1234,0,"['5', '7', '^', 'num_5', 'num_7', '=']",08/09/2018,1,16:20:53,Professional,0,2018-08-09_162053,2.0.10.356,,Emo_Nback_20180527,160,False,All,1.0.0.1180,0,0,"['2', 'num_2', 'right']",2.0.10.252,MRI,2.0.10.356,0,False,Stimuli/,Year 2,59.9955943482,1,
nonlure,All,PL_049_SCENE06.bmp,159,Place,0-Back,No Match,8,0,88,88,88,,0,No Match,,,,,,,,,,,0,644785,646792,2000,644785,646792,0,646792,646792,500,647292,647292,,,,,,,,,,,"['1', 'num_1', 'left', '2', 'num_2', 'right']",Emo_Nback_20180527_v1-ABCD1234,1,1,Verdana,1,Right,ABCD1234,0,"['5', '7', '^', 'num_5', 'num_7', '=']",08/09/2018,1,16:20:53,Professional,0,2018-08-09_162053,2.0.10.356,,Emo_Nback_20180527,160,False,All,1.0.0.1180,0,0,"['2', 'num_2', 'right']",2.0.10.252,MRI,2.0.10.356,0,False,Stimuli/,Year 2,59.9955943482,1,
nonlure,All,PL_050_SCENE07.bmp,160,Place,0-Back,No Match,8,0,89,89,89,,0,No Match,,,,,,,,,,,0,647303,649276,2000,647303,649276,0,649276,649276,500,649776,649776,,,,,,,,,,,"['1', 'num_1', 'left', '2', 'num_2', 'right']",Emo_Nback_20180527_v1-ABCD1234,1,1,Verdana,1,Right,ABCD1234,0,"['5', '7', '^', 'num_5', 'num_7', '=']",08/09/2018,1,16:20:53,Professional,0,2018-08-09_162053,2.0.10.356,,Emo_Nback_20180527,160,False,All,1.0.0.1180,0,0,"['2', 'num_2', 'right']",2.0.10.252,MRI,2.0.10.356,0,False,Stimuli/,Year 2,59.9955943482,1,
lure,All,PL_048_SCENE05.bmp,161,Place,0-Back,No Match,8,0,90,90,90,,0,No Match,,,,,,,,,,,0,649781,651776,2000,649782,651776,0,651776,651776,500,652276,652276,,,,,,,,,,,"['1', 'num_1', 'left', '2', 'num_2', 'right']",Emo_Nback_20180527_v1-ABCD1234,1,1,Verdana,1,Right,ABCD1234,0,"['5', '7', '^', 'num_5', 'num_7', '=']",08/09/2018,1,16:20:53,Professional,0,2018-08-09_162053,2.0.10.356,,Emo_Nback_20180527,160,False,All,1.0.0.1180,0,0,"['2', 'num_2', 'right']",2.0.10.252,MRI,2.0.10.356,0,False,Stimuli/,Year 2,59.9955943482,1,
None,All,None,None,None,Fix15secPROC,,None,0,91,91,91,,0,,,,,,,,,,,,,,,,,,,,,,,,,,,,,652279,15000,667279,652279,667279,"['1', 'num_1', 'left', '2', 'num_2', 'right']",Emo_Nback_20180527_v1-ABCD1234,1,1,Verdana,1,Right,ABCD1234,0,"['5', '7', '^', 'num_5', 'num_7', '=']",08/09/2018,1,16:20:53,Professional,0,2018-08-09_162053,2.0.10.356,,Emo_Nback_20180527,160,False,All,1.0.0.1180,0,0,"['2', 'num_2', 'right']",2.0.10.252,MRI,2.0.10.356,0,False,Stimuli/,Year 2,59.9955943482,1,
