ExperimentName,Subject,Session,Allowed,Clock.Information,ConsecNonResp[Session],ConsecRTLess200[Session],DataFile.Basename,ExperimentVersion,FontStyle,Group,Handedness,Main.RefreshRate,NARGUID,Nontarget,RunNumber,RuntimeCapabilities,RuntimeVersion,RuntimeVersionExpected,SessionDate,SessionTime,StimuliDir,StudioVersion,SUBID,Target,TotalRespGreater200[Session],TrialsPerRun[Session],triggercode,Block,BlockType,Cue2Back.Duration,Cue2Back.FinishTime,Cue2Back.OffsetTime,Cue2Back.OnsetTime,Cue2Back.StartTime,CueFix.Duration,CueFix.FinishTime,CueFix.OffsetTime,CueFix.OnsetTime,CueFix.StartTime,CueTarget.Duration,CueTarget.FinishTime,CueTarget.OffsetTime,CueTarget.OnsetTime,CueTarget.StartTime,Fix.Duration,Fix.FinishTime,Fix.OffsetTime,Fix.OnsetTime,Fix.StartTime,Fix15sec.Duration,Fix15sec.FinishTime,Fix15sec.OffsetTime,Fix15sec.OnsetTime,Fix15sec.StartTime,Stim.ACC,Stim.CRESP,Stim.Duration,Stim.FinishTime,Stim.OffsetTime,Stim.OnsetTime,Stim.RESP,Stim.RT,Stim.RTTime,Stim.StartTime,StimType,Stimulus,TargetType
Emo_Nback_20180527,1,MRI,"['1', 'num_1', 'left', '2', 'num_2', 'right']",0,0,0,Emo_Nback_20180527_v1-ABCD1234,1.0.0.1180,Verdana,1,Right,59.9883864952,ABCD1234,"['2', 'num_2', 'right']",1,Professional,2.0.10.356,2.0.10.356,06/25/2018,21:41:31,Stimuli/,2.0.10.252,0,1,0,160,"['5', '7', '^', 'num_5', 'num_7', '=']",1.0,Cue2Back,2500.0,51368.0,51368.0,48868.0,48868.0,500.0,48868.0,48868.0,48357.0,48357.0,,,,,,,,,,,,,,,,,,,,,,,0,,,Faces,,
Emo_Nback_20180527,1,MRI,"['1', 'num_1', 'left', '2', 'num_2', 'right']",0,0,0,Emo_Nback_20180527_v1-ABCD1234,1.0.0.1180,Verdana,1,Right,59.9883864952,ABCD1234,"['2', 'num_2', 'right']",1,Professional,2.0.10.356,2.0.10.356,06/25/2018,21:41:31,Stimuli/,2.0.10.252,0,1,0,160,"['5', '7', '^', 'num_5', 'num_7', '=']",1.0,2-Back,,,,,,,,,,,,,,,,500.0,53869.0,53869.0,53367.0,53367.0,,,,,,0.0,No Match,2000.0,53367.0,53367.0,51378.0,1.0,558,51937.0,51377.0,PosFace,23M_HO.bmp,nonlure
Emo_Nback_20180527,1,MRI,"['1', 'num_1', 'left', '2', 'num_2', 'right']",0,0,0,Emo_Nback_20180527_v1-ABCD1234,1.0.0.1180,Verdana,1,Right,59.9883864952,ABCD1234,"['2', 'num_2', 'right']",1,Professional,2.0.10.356,2.0.10.356,06/25/2018,21:41:31,Stimuli/,2.0.10.252,0,1,0,160,"['5', '7', '^', 'num_5', 'num_7', '=']",1.0,2-Back,,,,,,,,,,,,,,,,500.0,56368.0,56368.0,55867.0,55867.0,,,,,,1.0,No Match,2000.0,55867.0,55867.0,53875.0,2.0,579,54454.0,53874.0,PosFace,12F_HO.bmp,nonlure
Emo_Nback_20180527,1,MRI,"['1', 'num_1', 'left', '2', 'num_2', 'right']",0,0,0,Emo_Nback_20180527_v1-ABCD1234,1.0.0.1180,Verdana,1,Right,59.9883864952,ABCD1234,"['2', 'num_2', 'right']",1,Professional,2.0.10.356,2.0.10.356,06/25/2018,21:41:31,Stimuli/,2.0.10.252,0,1,0,160,"['5', '7', '^', 'num_5', 'num_7', '=']",1.0,2-Back,,,,,,,,,,,,,,,,500.0,58869.0,58869.0,58369.0,58368.0,,,,,,0.0,No Match,2000.0,58368.0,58368.0,56377.0,1.0,526,56904.0,56377.0,PosFace,AF02_HO.bmp,nonlure
Emo_Nback_20180527,1,MRI,"['1', 'num_1', 'left', '2', 'num_2', 'right']",0,0,0,Emo_Nback_20180527_v1-ABCD1234,1.0.0.1180,Verdana,1,Right,59.9883864952,ABCD1234,"['2', 'num_2', 'right']",1,Professional,2.0.10.356,2.0.10.356,06/25/2018,21:41:31,Stimuli/,2.0.10.252,0,1,0,160,"['5', '7', '^', 'num_5', 'num_7', '=']",1.0,2-Back,,,,,,,,,,,,,,,,500.0,61369.0,61369.0,60869.0,60869.0,,,,,,1.0,Match,2000.0,60869.0,60869.0,58875.0,1.0,377,59253.0,58875.0,PosFace,12F_HO.bmp,target
Emo_Nback_20180527,1,MRI,"['1', 'num_1', 'left', '2', 'num_2', 'right']",0,0,0,Emo_Nback_20180527_v1-ABCD1234,1.0.0.1180,Verdana,1,Right,59.9883864952,ABCD1234,"['2', 'num_2', 'right']",1,Professional,2.0.10.356,2.0.10.356,06/25/2018,21:41:31,Stimuli/,2.0.10.252,0,1,0,160,"['5', '7', '^', 'num_5', 'num_7', '=']",1.0,2-Back,,,,,,,,,,,,,,,,500.0,63869.0,63869.0,63369.0,63369.0,,,,,,0.0,No Match,2000.0,63369.0,63369.0,61375.0,1.0,362,61738.0,61375.0,PosFace,WM011_HO.bmp,nonlure
Emo_Nback_20180527,1,MRI,"['1', 'num_1', 'left', '2', 'num_2', 'right']",0,0,0,Emo_Nback_20180527_v1-ABCD1234,1.0.0.1180,Verdana,1,Right,59.9883864952,ABCD1234,"['2', 'num_2', 'right']",1,Professional,2.0.10.356,2.0.10.356,06/25/2018,21:41:31,Stimuli/,2.0.10.252,0,1,0,160,"['5', '7', '^', 'num_5', 'num_7', '=']",1.0,2-Back,,,,,,,,,,,,,,,,500.0,66370.0,66370.0,65870.0,65870.0,,,,,,0.0,No Match,2000.0,65870.0,65869.0,63879.0,1.0,377,64270.0,63878.0,PosFace,HM04_HO.bmp,nonlure
Emo_Nback_20180527,1,MRI,"['1', 'num_1', 'left', '2', 'num_2', 'right']",0,0,0,Emo_Nback_20180527_v1-ABCD1234,1.0.0.1180,Verdana,1,Right,59.9883864952,ABCD1234,"['2', 'num_2', 'right']",1,Professional,2.0.10.356,2.0.10.356,06/25/2018,21:41:31,Stimuli/,2.0.10.252,0,1,0,160,"['5', '7', '^', 'num_5', 'num_7', '=']",1.0,2-Back,,,,,,,,,,,,,,,,500.0,68870.0,68870.0,68370.0,68370.0,,,,,,0.0,No Match,2000.0,68370.0,68370.0,66376.0,1.0,162,66539.0,66375.0,PosFace,AF02_HO.bmp,lure
Emo_Nback_20180527,1,MRI,"['1', 'num_1', 'left', '2', 'num_2', 'right']",0,0,0,Emo_Nback_20180527_v1-ABCD1234,1.0.0.1180,Verdana,1,Right,59.9883864952,ABCD1234,"['2', 'num_2', 'right']",1,Professional,2.0.10.356,2.0.10.356,06/25/2018,21:41:31,Stimuli/,2.0.10.252,0,1,0,160,"['5', '7', '^', 'num_5', 'num_7', '=']",1.0,2-Back,,,,,,,,,,,,,,,,500.0,71354.0,71354.0,70854.0,70854.0,,,,,,0.0,No Match,2000.0,70854.0,70854.0,68876.0,1.0,45,68922.0,68875.0,PosFace,BF037_HO.bmp,nonlure
Emo_Nback_20180527,1,MRI,"['1', 'num_1', 'left', '2', 'num_2', 'right']",0,0,0,Emo_Nback_20180527_v1-ABCD1234,1.0.0.1180,Verdana,1,Right,59.9883864952,ABCD1234,"['2', 'num_2', 'right']",1,Professional,2.0.10.356,2.0.10.356,06/25/2018,21:41:31,Stimuli/,2.0.10.252,0,1,0,160,"['5', '7', '^', 'num_5', 'num_7', '=']",1.0,2-Back,,,,,,,,,,,,,,,,500.0,73854.0,73854.0,73354.0,73354.0,,,,,,0.0,No Match,2000.0,73354.0,73354.0,71358.0,,0,0.0,71358.0,PosFace,WM011_HO.bmp,lure
Emo_Nback_20180527,1,MRI,"['1', 'num_1', 'left', '2', 'num_2', 'right']",0,0,0,Emo_Nback_20180527_v1-ABCD1234,1.0.0.1180,Verdana,1,Right,59.9883864952,ABCD1234,"['2', 'num_2', 'right']",1,Professional,2.0.10.356,2.0.10.356,06/25/2018,21:41:31,Stimuli/,2.0.10.252,0,1,0,160,"['5', '7', '^', 'num_5', 'num_7', '=']",1.0,2-Back,,,,,,,,,,,,,,,,500.0,76354.0,76354.0,75855.0,75855.0,,,,,,0.0,Match,2000.0,75855.0,75855.0,73860.0,,0,0.0,73859.0,PosFace,BF037_HO.bmp,target
Emo_Nback_20180527,1,MRI,"['1', 'num_1', 'left', '2', 'num_2', 'right']",0,0,0,Emo_Nback_20180527_v1-ABCD1234,1.0.0.1180,Verdana,1,Right,59.9883864952,ABCD1234,"['2', 'num_2', 'right']",1,Professional,2.0.10.356,2.0.10.356,06/25/2018,21:41:31,Stimuli/,2.0.10.252,0,1,0,160,"['5', '7', '^', 'num_5', 'num_7', '=']",2.0,Cue0Back,,,,,,500.0,76854.0,76854.0,76359.0,76359.0,2500.0,79354.0,79354.0,76854.0,76854.0,,,,,,,,,,,,,,,,,,0,,,Faces,AF218_NC.bmp,target
Emo_Nback_20180527,1,MRI,"['1', 'num_1', 'left', '2', 'num_2', 'right']",0,0,0,Emo_Nback_20180527_v1-ABCD1234,1.0.0.1180,Verdana,1,Right,59.9883864952,ABCD1234,"['2', 'num_2', 'right']",1,Professional,2.0.10.356,2.0.10.356,06/25/2018,21:41:31,Stimuli/,2.0.10.252,0,1,0,160,"['5', '7', '^', 'num_5', 'num_7', '=']",2.0,0-Back,,,,,,,,,,,,,,,,500.0,81855.0,81855.0,81355.0,81355.0,,,,,,0.0,No Match,2000.0,81355.0,81355.0,79364.0,,0,0.0,79363.0,NeutFace,LF206_NC.bmp,nonlure
Emo_Nback_20180527,1,MRI,"['1', 'num_1', 'left', '2', 'num_2', 'right']",0,0,0,Emo_Nback_20180527_v1-ABCD1234,1.0.0.1180,Verdana,1,Right,59.9883864952,ABCD1234,"['2', 'num_2', 'right']",1,Professional,2.0.10.356,2.0.10.356,06/25/2018,21:41:31,Stimuli/,2.0.10.252,0,1,0,160,"['5', '7', '^', 'num_5', 'num_7', '=']",2.0,0-Back,,,,,,,,,,,,,,,,500.0,84355.0,84355.0,83856.0,83856.0,,,,,,1.0,Match,2000.0,83856.0,83856.0,81861.0,1.0,312,82174.0,81861.0,NeutFace,AF218_NC.bmp,target
Emo_Nback_20180527,1,MRI,"['1', 'num_1', 'left', '2', 'num_2', 'right']",0,0,0,Emo_Nback_20180527_v1-ABCD1234,1.0.0.1180,Verdana,1,Right,59.9883864952,ABCD1234,"['2', 'num_2', 'right']",1,Professional,2.0.10.356,2.0.10.356,06/25/2018,21:41:31,Stimuli/,2.0.10.252,0,1,0,160,"['5', '7', '^', 'num_5', 'num_7', '=']",2.0,0-Back,,,,,,,,,,,,,,,,500.0,86855.0,86855.0,86356.0,86356.0,,,,,,0.0,No Match,2000.0,86356.0,86355.0,84360.0,1.0,530,84891.0,84360.0,NeutFace,42M_NC.bmp,nonlure
Emo_Nback_20180527,1,MRI,"['1', 'num_1', 'left', '2', 'num_2', 'right']",0,0,0,Emo_Nback_20180527_v1-ABCD1234,1.0.0.1180,Verdana,1,Right,59.9883864952,ABCD1234,"['2', 'num_2', 'right']",1,Professional,2.0.10.356,2.0.10.356,06/25/2018,21:41:31,Stimuli/,2.0.10.252,0,1,0,160,"['5', '7', '^', 'num_5', 'num_7', '=']",2.0,0-Back,,,,,,,,,,,,,,,,500.0,89356.0,89356.0,88856.0,88856.0,,,,,,0.0,No Match,2000.0,88856.0,88856.0,86865.0,1.0,443,87309.0,86865.0,NeutFace,BM09_NC.bmp,nonlure
Emo_Nback_20180527,1,MRI,"['1', 'num_1', 'left', '2', 'num_2', 'right']",0,0,0,Emo_Nback_20180527_v1-ABCD1234,1.0.0.1180,Verdana,1,Right,59.9883864952,ABCD1234,"['2', 'num_2', 'right']",1,Professional,2.0.10.356,2.0.10.356,06/25/2018,21:41:31,Stimuli/,2.0.10.252,0,1,0,160,"['5', '7', '^', 'num_5', 'num_7', '=']",2.0,0-Back,,,,,,,,,,,,,,,,500.0,91856.0,91856.0,91356.0,91356.0,,,,,,0.0,No Match,2000.0,91356.0,91356.0,89362.0,,0,0.0,89362.0,NeutFace,BM09_NC.bmp,lure
Emo_Nback_20180527,1,MRI,"['1', 'num_1', 'left', '2', 'num_2', 'right']",0,0,0,Emo_Nback_20180527_v1-ABCD1234,1.0.0.1180,Verdana,1,Right,59.9883864952,ABCD1234,"['2', 'num_2', 'right']",1,Professional,2.0.10.356,2.0.10.356,06/25/2018,21:41:31,Stimuli/,2.0.10.252,0,1,0,160,"['5', '7', '^', 'num_5', 'num_7', '=']",2.0,0-Back,,,,,,,,,,,,,,,,500.0,94356.0,94356.0,93857.0,93857.0,,,,,,0.0,Match,2000.0,93857.0,93857.0,91862.0,,0,0.0,91862.0,NeutFace,AF218_NC.bmp,target
Emo_Nback_20180527,1,MRI,"['1', 'num_1', 'left', '2', 'num_2', 'right']",0,0,0,Emo_Nback_20180527_v1-ABCD1234,1.0.0.1180,Verdana,1,Right,59.9883864952,ABCD1234,"['2', 'num_2', 'right']",1,Professional,2.0.10.356,2.0.10.356,06/25/2018,21:41:31,Stimuli/,2.0.10.252,0,1,0,160,"['5', '7', '^', 'num_5', 'num_7', '=']",2.0,0-Back,,,,,,,,,,,,,,,,500.0,96857.0,96857.0,96358.0,96357.0,,,,,,0.0,No Match,2000.0,96357.0,96357.0,94362.0,,0,0.0,94362.0,NeutFace,7F_NC.bmp,nonlure
Emo_Nback_20180527,1,MRI,"['1', 'num_1', 'left', '2', 'num_2', 'right']",0,0,0,Emo_Nback_20180527_v1-ABCD1234,1.0.0.1180,Verdana,1,Right,59.9883864952,ABCD1234,"['2', 'num_2', 'right']",1,Professional,2.0.10.356,2.0.10.356,06/25/2018,21:41:31,Stimuli/,2.0.10.252,0,1,0,160,"['5', '7', '^', 'num_5', 'num_7', '=']",2.0,0-Back,,,,,,,,,,,,,,,,500.0,99358.0,99358.0,98857.0,98857.0,,,,,,0.0,No Match,2000.0,98857.0,98857.0,96862.0,,0,0.0,96862.0,NeutFace,7F_NC.bmp,lure
Emo_Nback_20180527,1,MRI,"['1', 'num_1', 'left', '2', 'num_2', 'right']",0,0,0,Emo_Nback_20180527_v1-ABCD1234,1.0.0.1180,Verdana,1,Right,59.9883864952,ABCD1234,"['2', 'num_2', 'right']",1,Professional,2.0.10.356,2.0.10.356,06/25/2018,21:41:31,Stimuli/,2.0.10.252,0,1,0,160,"['5', '7', '^', 'num_5', 'num_7', '=']",2.0,0-Back,,,,,,,,,,,,,,,,500.0,101857.0,101857.0,101358.0,101358.0,,,,,,0.0,No Match,2000.0,101358.0,101358.0,99363.0,,0,0.0,99363.0,NeutFace,42M_NC.bmp,lure
Emo_Nback_20180527,1,MRI,"['1', 'num_1', 'left', '2', 'num_2', 'right']",0,0,0,Emo_Nback_20180527_v1-ABCD1234,1.0.0.1180,Verdana,1,Right,59.9883864952,ABCD1234,"['2', 'num_2', 'right']",1,Professional,2.0.10.356,2.0.10.356,06/25/2018,21:41:31,Stimuli/,2.0.10.252,0,1,0,160,"['5', '7', '^', 'num_5', 'num_7', '=']",2.0,0-Back,,,,,,,,,,,,,,,,500.0,104358.0,104358.0,103858.0,103858.0,,,,,,0.0,No Match,2000.0,103858.0,103858.0,101866.0,,0,0.0,101866.0,NeutFace,LM207_NC.bmp,nonlure
Emo_Nback_20180527,1,MRI,"['1', 'num_1', 'left', '2', 'num_2', 'right']",0,0,0,Emo_Nback_20180527_v1-ABCD1234,1.0.0.1180,Verdana,1,Right,59.9883864952,ABCD1234,"['2', 'num_2', 'right']",1,Professional,2.0.10.356,2.0.10.356,06/25/2018,21:41:31,Stimuli/,2.0.10.252,0,1,0,160,"['5', '7', '^', 'num_5', 'num_7', '=']",None,Fix15secPROC,,,,,,,,,,,,,,,,,,,,,15000.0,119360.0,119360.0,104361.0,104361.0,,,,,,,,0,,,None,None,None
Emo_Nback_20180527,1,MRI,"['1', 'num_1', 'left', '2', 'num_2', 'right']",0,0,0,Emo_Nback_20180527_v1-ABCD1234,1.0.0.1180,Verdana,1,Right,59.9883864952,ABCD1234,"['2', 'num_2', 'right']",1,Professional,2.0.10.356,2.0.10.356,06/25/2018,21:41:31,Stimuli/,2.0.10.252,0,1,0,160,"['5', '7', '^', 'num_5', 'num_7', '=']",3.0,Cue2Back,2500.0,122360.0,122360.0,119861.0,119860.0,500.0,119860.0,119860.0,119366.0,119366.0,,,,,,,,,,,,,,,,,,,,,,,0,,,Faces,None,None
Emo_Nback_20180527,1,MRI,"['1', 'num_1', 'left', '2', 'num_2', 'right']",0,0,0,Emo_Nback_20180527_v1-ABCD1234,1.0.0.1180,Verdana,1,Right,59.9883864952,ABCD1234,"['2', 'num_2', 'right']",1,Professional,2.0.10.356,2.0.10.356,06/25/2018,21:41:31,Stimuli/,2.0.10.252,0,1,0,160,"['5', '7', '^', 'num_5', 'num_7', '=']",3.0,2-Back,,,,,,,,,,,,,,,,500.0,124861.0,124861.0,124361.0,124361.0,,,,,,0.0,No Match,2000.0,124361.0,124360.0,122370.0,,0,0.0,122370.0,NegFace,17F_FO.bmp,nonlure
Emo_Nback_20180527,1,MRI,"['1', 'num_1', 'left', '2', 'num_2', 'right']",0,0,0,Emo_Nback_20180527_v1-ABCD1234,1.0.0.1180,Verdana,1,Right,59.9883864952,ABCD1234,"['2', 'num_2', 'right']",1,Professional,2.0.10.356,2.0.10.356,06/25/2018,21:41:31,Stimuli/,2.0.10.252,0,1,0,160,"['5', '7', '^', 'num_5', 'num_7', '=']",3.0,2-Back,,,,,,,,,,,,,,,,500.0,127360.0,127360.0,126861.0,126861.0,,,,,,0.0,No Match,2000.0,126861.0,126861.0,124866.0,,0,0.0,124866.0,NegFace,HM03_FO.bmp,nonlure
Emo_Nback_20180527,1,MRI,"['1', 'num_1', 'left', '2', 'num_2', 'right']",0,0,0,Emo_Nback_20180527_v1-ABCD1234,1.0.0.1180,Verdana,1,Right,59.9883864952,ABCD1234,"['2', 'num_2', 'right']",1,Professional,2.0.10.356,2.0.10.356,06/25/2018,21:41:31,Stimuli/,2.0.10.252,0,1,0,160,"['5', '7', '^', 'num_5', 'num_7', '=']",3.0,2-Back,,,,,,,,,,,,,,,,500.0,129861.0,129861.0,129361.0,129361.0,,,,,,0.0,No Match,2000.0,129361.0,129361.0,127366.0,,0,0.0,127366.0,NegFace,BM045_FO.bmp,nonlure
Emo_Nback_20180527,1,MRI,"['1', 'num_1', 'left', '2', 'num_2', 'right']",0,0,0,Emo_Nback_20180527_v1-ABCD1234,1.0.0.1180,Verdana,1,Right,59.9883864952,ABCD1234,"['2', 'num_2', 'right']",1,Professional,2.0.10.356,2.0.10.356,06/25/2018,21:41:31,Stimuli/,2.0.10.252,0,1,0,160,"['5', '7', '^', 'num_5', 'num_7', '=']",3.0,2-Back,,,,,,,,,,,,,,,,500.0,132362.0,132362.0,131862.0,131862.0,,,,,,0.0,Match,2000.0,131862.0,131862.0,129867.0,,0,0.0,129867.0,NegFace,HM03_FO.bmp,target
Emo_Nback_20180527,1,MRI,"['1', 'num_1', 'left', '2', 'num_2', 'right']",0,0,0,Emo_Nback_20180527_v1-ABCD1234,1.0.0.1180,Verdana,1,Right,59.9883864952,ABCD1234,"['2', 'num_2', 'right']",1,Professional,2.0.10.356,2.0.10.356,06/25/2018,21:41:31,Stimuli/,2.0.10.252,0,1,0,160,"['5', '7', '^', 'num_5', 'num_7', '=']",3.0,2-Back,,,,,,,,,,,,,,,,500.0,134861.0,134861.0,134362.0,134362.0,,,,,,0.0,No Match,2000.0,134362.0,134362.0,132367.0,,0,0.0,132367.0,NegFace,17F_FO.bmp,lure
Emo_Nback_20180527,1,MRI,"['1', 'num_1', 'left', '2', 'num_2', 'right']",0,0,0,Emo_Nback_20180527_v1-ABCD1234,1.0.0.1180,Verdana,1,Right,59.9883864952,ABCD1234,"['2', 'num_2', 'right']",1,Professional,2.0.10.356,2.0.10.356,06/25/2018,21:41:31,Stimuli/,2.0.10.252,0,1,0,160,"['5', '7', '^', 'num_5', 'num_7', '=']",3.0,2-Back,,,,,,,,,,,,,,,,500.0,137362.0,137362.0,136862.0,136862.0,,,,,,0.0,No Match,2000.0,136862.0,136862.0,134867.0,,0,0.0,134867.0,NegFace,BM045_FO.bmp,lure
Emo_Nback_20180527,1,MRI,"['1', 'num_1', 'left', '2', 'num_2', 'right']",0,0,0,Emo_Nback_20180527_v1-ABCD1234,1.0.0.1180,Verdana,1,Right,59.9883864952,ABCD1234,"['2', 'num_2', 'right']",1,Professional,2.0.10.356,2.0.10.356,06/25/2018,21:41:31,Stimuli/,2.0.10.252,0,1,0,160,"['5', '7', '^', 'num_5', 'num_7', '=']",3.0,2-Back,,,,,,,,,,,,,,,,500.0,139862.0,139862.0,139363.0,139363.0,,,,,,0.0,No Match,2000.0,139363.0,139363.0,137367.0,,0,0.0,137367.0,NegFace,9F_FO.bmp,nonlure
Emo_Nback_20180527,1,MRI,"['1', 'num_1', 'left', '2', 'num_2', 'right']",0,0,0,Emo_Nback_20180527_v1-ABCD1234,1.0.0.1180,Verdana,1,Right,59.9883864952,ABCD1234,"['2', 'num_2', 'right']",1,Professional,2.0.10.356,2.0.10.356,06/25/2018,21:41:31,Stimuli/,2.0.10.252,0,1,0,160,"['5', '7', '^', 'num_5', 'num_7', '=']",3.0,2-Back,,,,,,,,,,,,,,,,500.0,142363.0,142363.0,141863.0,141863.0,,,,,,0.0,No Match,2000.0,141863.0,141863.0,139871.0,,0,0.0,139871.0,NegFace,WM004_FO.bmp,nonlure
Emo_Nback_20180527,1,MRI,"['1', 'num_1', 'left', '2', 'num_2', 'right']",0,0,0,Emo_Nback_20180527_v1-ABCD1234,1.0.0.1180,Verdana,1,Right,59.9883864952,ABCD1234,"['2', 'num_2', 'right']",1,Professional,2.0.10.356,2.0.10.356,06/25/2018,21:41:31,Stimuli/,2.0.10.252,0,1,0,160,"['5', '7', '^', 'num_5', 'num_7', '=']",3.0,2-Back,,,,,,,,,,,,,,,,500.0,144863.0,144863.0,144363.0,144363.0,,,,,,0.0,Match,2000.0,144363.0,144363.0,142369.0,,0,0.0,142368.0,NegFace,9F_FO.bmp,target
Emo_Nback_20180527,1,MRI,"['1', 'num_1', 'left', '2', 'num_2', 'right']",0,0,0,Emo_Nback_20180527_v1-ABCD1234,1.0.0.1180,Verdana,1,Right,59.9883864952,ABCD1234,"['2', 'num_2', 'right']",1,Professional,2.0.10.356,2.0.10.356,06/25/2018,21:41:31,Stimuli/,2.0.10.252,0,1,0,160,"['5', '7', '^', 'num_5', 'num_7', '=']",3.0,2-Back,,,,,,,,,,,,,,,,500.0,147363.0,147363.0,146864.0,146864.0,,,,,,0.0,No Match,2000.0,146864.0,146864.0,144872.0,,0,0.0,144872.0,NegFace,BF06_FO.bmp,nonlure
Emo_Nback_20180527,1,MRI,"['1', 'num_1', 'left', '2', 'num_2', 'right']",0,0,0,Emo_Nback_20180527_v1-ABCD1234,1.0.0.1180,Verdana,1,Right,59.9883864952,ABCD1234,"['2', 'num_2', 'right']",1,Professional,2.0.10.356,2.0.10.356,06/25/2018,21:41:31,Stimuli/,2.0.10.252,0,1,0,160,"['5', '7', '^', 'num_5', 'num_7', '=']",4.0,Cue0Back,,,,,,500.0,147863.0,147863.0,147369.0,147369.0,2500.0,150364.0,150364.0,147864.0,147863.0,,,,,,,,,,,,,,,,,,0,,,Faces,34M_HO.bmp,target
Emo_Nback_20180527,1,MRI,"['1', 'num_1', 'left', '2', 'num_2', 'right']",0,0,0,Emo_Nback_20180527_v1-ABCD1234,1.0.0.1180,Verdana,1,Right,59.9883864952,ABCD1234,"['2', 'num_2', 'right']",1,Professional,2.0.10.356,2.0.10.356,06/25/2018,21:41:31,Stimuli/,2.0.10.252,0,1,0,160,"['5', '7', '^', 'num_5', 'num_7', '=']",4.0,0-Back,,,,,,,,,,,,,,,,500.0,152865.0,152864.0,152365.0,152365.0,,,,,,0.0,Match,2000.0,152365.0,152365.0,150369.0,,0,0.0,150369.0,PosFace,34M_HO.bmp,target
Emo_Nback_20180527,1,MRI,"['1', 'num_1', 'left', '2', 'num_2', 'right']",0,0,0,Emo_Nback_20180527_v1-ABCD1234,1.0.0.1180,Verdana,1,Right,59.9883864952,ABCD1234,"['2', 'num_2', 'right']",1,Professional,2.0.10.356,2.0.10.356,06/25/2018,21:41:31,Stimuli/,2.0.10.252,0,1,0,160,"['5', '7', '^', 'num_5', 'num_7', '=']",4.0,0-Back,,,,,,,,,,,,,,,,500.0,155364.0,155364.0,154865.0,154865.0,,,,,,0.0,No Match,2000.0,154865.0,154865.0,152870.0,,0,0.0,152870.0,PosFace,BM08_HO.bmp,nonlure
Emo_Nback_20180527,1,MRI,"['1', 'num_1', 'left', '2', 'num_2', 'right']",0,0,0,Emo_Nback_20180527_v1-ABCD1234,1.0.0.1180,Verdana,1,Right,59.9883864952,ABCD1234,"['2', 'num_2', 'right']",1,Professional,2.0.10.356,2.0.10.356,06/25/2018,21:41:31,Stimuli/,2.0.10.252,0,1,0,160,"['5', '7', '^', 'num_5', 'num_7', '=']",4.0,0-Back,,,,,,,,,,,,,,,,500.0,157865.0,157865.0,157365.0,157365.0,,,,,,0.0,No Match,2000.0,157365.0,157365.0,155373.0,,0,0.0,155373.0,PosFace,HF04_HO.bmp,nonlure
Emo_Nback_20180527,1,MRI,"['1', 'num_1', 'left', '2', 'num_2', 'right']",0,0,0,Emo_Nback_20180527_v1-ABCD1234,1.0.0.1180,Verdana,1,Right,59.9883864952,ABCD1234,"['2', 'num_2', 'right']",1,Professional,2.0.10.356,2.0.10.356,06/25/2018,21:41:31,Stimuli/,2.0.10.252,0,1,0,160,"['5', '7', '^', 'num_5', 'num_7', '=']",4.0,0-Back,,,,,,,,,,,,,,,,500.0,160365.0,160365.0,159865.0,159865.0,,,,,,0.0,No Match,2000.0,159865.0,159865.0,157870.0,,0,0.0,157870.0,PosFace,BF002_HO.bmp,nonlure
Emo_Nback_20180527,1,MRI,"['1', 'num_1', 'left', '2', 'num_2', 'right']",0,0,0,Emo_Nback_20180527_v1-ABCD1234,1.0.0.1180,Verdana,1,Right,59.9883864952,ABCD1234,"['2', 'num_2', 'right']",1,Professional,2.0.10.356,2.0.10.356,06/25/2018,21:41:31,Stimuli/,2.0.10.252,0,1,0,160,"['5', '7', '^', 'num_5', 'num_7', '=']",4.0,0-Back,,,,,,,,,,,,,,,,500.0,162866.0,162866.0,162366.0,162366.0,,,,,,0.0,No Match,2000.0,162366.0,162366.0,160371.0,,0,0.0,160370.0,PosFace,BM08_HO.bmp,lure
Emo_Nback_20180527,1,MRI,"['1', 'num_1', 'left', '2', 'num_2', 'right']",0,0,0,Emo_Nback_20180527_v1-ABCD1234,1.0.0.1180,Verdana,1,Right,59.9883864952,ABCD1234,"['2', 'num_2', 'right']",1,Professional,2.0.10.356,2.0.10.356,06/25/2018,21:41:31,Stimuli/,2.0.10.252,0,1,0,160,"['5', '7', '^', 'num_5', 'num_7', '=']",4.0,0-Back,,,,,,,,,,,,,,,,500.0,165366.0,165366.0,164865.0,164865.0,,,,,,0.0,No Match,2000.0,164865.0,164865.0,162876.0,,0,0.0,162875.0,PosFace,45M_HO.bmp,nonlure
Emo_Nback_20180527,1,MRI,"['1', 'num_1', 'left', '2', 'num_2', 'right']",0,0,0,Emo_Nback_20180527_v1-ABCD1234,1.0.0.1180,Verdana,1,Right,59.9883864952,ABCD1234,"['2', 'num_2', 'right']",1,Professional,2.0.10.356,2.0.10.356,06/25/2018,21:41:31,Stimuli/,2.0.10.252,0,1,0,160,"['5', '7', '^', 'num_5', 'num_7', '=']",4.0,0-Back,,,,,,,,,,,,,,,,500.0,167866.0,167866.0,167366.0,167366.0,,,,,,0.0,No Match,2000.0,167366.0,167366.0,165371.0,,0,0.0,165371.0,PosFace,45M_HO.bmp,lure
Emo_Nback_20180527,1,MRI,"['1', 'num_1', 'left', '2', 'num_2', 'right']",0,0,0,Emo_Nback_20180527_v1-ABCD1234,1.0.0.1180,Verdana,1,Right,59.9883864952,ABCD1234,"['2', 'num_2', 'right']",1,Professional,2.0.10.356,2.0.10.356,06/25/2018,21:41:31,Stimuli/,2.0.10.252,0,1,0,160,"['5', '7', '^', 'num_5', 'num_7', '=']",4.0,0-Back,,,,,,,,,,,,,,,,500.0,170367.0,170367.0,169867.0,169867.0,,,,,,0.0,No Match,2000.0,169867.0,169867.0,167872.0,,0,0.0,167871.0,PosFace,BF002_HO.bmp,lure
Emo_Nback_20180527,1,MRI,"['1', 'num_1', 'left', '2', 'num_2', 'right']",0,0,0,Emo_Nback_20180527_v1-ABCD1234,1.0.0.1180,Verdana,1,Right,59.9883864952,ABCD1234,"['2', 'num_2', 'right']",1,Professional,2.0.10.356,2.0.10.356,06/25/2018,21:41:31,Stimuli/,2.0.10.252,0,1,0,160,"['5', '7', '^', 'num_5', 'num_7', '=']",4.0,0-Back,,,,,,,,,,,,,,,,500.0,172867.0,172867.0,172367.0,172367.0,,,,,,0.0,Match,2000.0,172367.0,172367.0,170372.0,,0,0.0,170372.0,PosFace,34M_HO.bmp,target
Emo_Nback_20180527,1,MRI,"['1', 'num_1', 'left', '2', 'num_2', 'right']",0,0,0,Emo_Nback_20180527_v1-ABCD1234,1.0.0.1180,Verdana,1,Right,59.9883864952,ABCD1234,"['2', 'num_2', 'right']",1,Professional,2.0.10.356,2.0.10.356,06/25/2018,21:41:31,Stimuli/,2.0.10.252,0,1,0,160,"['5', '7', '^', 'num_5', 'num_7', '=']",4.0,0-Back,,,,,,,,,,,,,,,,500.0,175367.0,175367.0,174868.0,174868.0,,,,,,0.0,No Match,2000.0,174868.0,174867.0,172877.0,,0,0.0,172877.0,PosFace,WF07_HO.bmp,nonlure
Emo_Nback_20180527,1,MRI,"['1', 'num_1', 'left', '2', 'num_2', 'right']",0,0,0,Emo_Nback_20180527_v1-ABCD1234,1.0.0.1180,Verdana,1,Right,59.9883864952,ABCD1234,"['2', 'num_2', 'right']",1,Professional,2.0.10.356,2.0.10.356,06/25/2018,21:41:31,Stimuli/,2.0.10.252,0,1,0,160,"['5', '7', '^', 'num_5', 'num_7', '=']",None,Fix15secPROC,,,,,,,,,,,,,,,,,,,,,15000.0,190370.0,190369.0,175370.0,175370.0,,,,,,,,0,,,None,None,None
Emo_Nback_20180527,1,MRI,"['1', 'num_1', 'left', '2', 'num_2', 'right']",0,0,0,Emo_Nback_20180527_v1-ABCD1234,1.0.0.1180,Verdana,1,Right,59.9883864952,ABCD1234,"['2', 'num_2', 'right']",1,Professional,2.0.10.356,2.0.10.356,06/25/2018,21:41:31,Stimuli/,2.0.10.252,0,1,0,160,"['5', '7', '^', 'num_5', 'num_7', '=']",5.0,Cue0Back,,,,,,500.0,190870.0,190870.0,190375.0,190375.0,2500.0,193370.0,193370.0,190870.0,190870.0,,,,,,,,,,,,,,,,,,0,,,Place,PL_001_92012.bmp,target
Emo_Nback_20180527,1,MRI,"['1', 'num_1', 'left', '2', 'num_2', 'right']",0,0,0,Emo_Nback_20180527_v1-ABCD1234,1.0.0.1180,Verdana,1,Right,59.9883864952,ABCD1234,"['2', 'num_2', 'right']",1,Professional,2.0.10.356,2.0.10.356,06/25/2018,21:41:31,Stimuli/,2.0.10.252,0,1,0,160,"['5', '7', '^', 'num_5', 'num_7', '=']",5.0,0-Back,,,,,,,,,,,,,,,,500.0,195870.0,195870.0,195369.0,195369.0,,,,,,0.0,No Match,2000.0,195369.0,195369.0,193375.0,,0,0.0,193375.0,Place,PL_003_92016.bmp,nonlure
Emo_Nback_20180527,1,MRI,"['1', 'num_1', 'left', '2', 'num_2', 'right']",0,0,0,Emo_Nback_20180527_v1-ABCD1234,1.0.0.1180,Verdana,1,Right,59.9883864952,ABCD1234,"['2', 'num_2', 'right']",1,Professional,2.0.10.356,2.0.10.356,06/25/2018,21:41:31,Stimuli/,2.0.10.252,0,1,0,160,"['5', '7', '^', 'num_5', 'num_7', '=']",5.0,0-Back,,,,,,,,,,,,,,,,500.0,198354.0,198353.0,197854.0,197854.0,,,,,,0.0,No Match,2000.0,197854.0,197854.0,195875.0,,0,0.0,195875.0,Place,PL_003_92016.bmp,lure
Emo_Nback_20180527,1,MRI,"['1', 'num_1', 'left', '2', 'num_2', 'right']",0,0,0,Emo_Nback_20180527_v1-ABCD1234,1.0.0.1180,Verdana,1,Right,59.9883864952,ABCD1234,"['2', 'num_2', 'right']",1,Professional,2.0.10.356,2.0.10.356,06/25/2018,21:41:31,Stimuli/,2.0.10.252,0,1,0,160,"['5', '7', '^', 'num_5', 'num_7', '=']",5.0,0-Back,,,,,,,,,,,,,,,,500.0,200870.0,200870.0,200354.0,200354.0,,,,,,0.0,No Match,2000.0,200354.0,200354.0,198359.0,,0,0.0,198359.0,Place,PL_006_92025.bmp,nonlure
Emo_Nback_20180527,1,MRI,"['1', 'num_1', 'left', '2', 'num_2', 'right']",0,0,0,Emo_Nback_20180527_v1-ABCD1234,1.0.0.1180,Verdana,1,Right,59.9883864952,ABCD1234,"['2', 'num_2', 'right']",1,Professional,2.0.10.356,2.0.10.356,06/25/2018,21:41:31,Stimuli/,2.0.10.252,0,1,0,160,"['5', '7', '^', 'num_5', 'num_7', '=']",5.0,0-Back,,,,,,,,,,,,,,,,500.0,203354.0,203354.0,202854.0,202854.0,,,,,,0.0,Match,2000.0,202854.0,202854.0,200876.0,,0,0.0,200875.0,Place,PL_001_92012.bmp,target
Emo_Nback_20180527,1,MRI,"['1', 'num_1', 'left', '2', 'num_2', 'right']",0,0,0,Emo_Nback_20180527_v1-ABCD1234,1.0.0.1180,Verdana,1,Right,59.9883864952,ABCD1234,"['2', 'num_2', 'right']",1,Professional,2.0.10.356,2.0.10.356,06/25/2018,21:41:31,Stimuli/,2.0.10.252,0,1,0,160,"['5', '7', '^', 'num_5', 'num_7', '=']",5.0,0-Back,,,,,,,,,,,,,,,,500.0,205854.0,205854.0,205354.0,205354.0,,,,,,0.0,No Match,2000.0,205354.0,205354.0,203364.0,,0,0.0,203364.0,Place,PL_004_92023.bmp,nonlure
Emo_Nback_20180527,1,MRI,"['1', 'num_1', 'left', '2', 'num_2', 'right']",0,0,0,Emo_Nback_20180527_v1-ABCD1234,1.0.0.1180,Verdana,1,Right,59.9883864952,ABCD1234,"['2', 'num_2', 'right']",1,Professional,2.0.10.356,2.0.10.356,06/25/2018,21:41:31,Stimuli/,2.0.10.252,0,1,0,160,"['5', '7', '^', 'num_5', 'num_7', '=']",5.0,0-Back,,,,,,,,,,,,,,,,500.0,208355.0,208355.0,207855.0,207855.0,,,,,,0.0,No Match,2000.0,207855.0,207855.0,205863.0,,0,0.0,205863.0,Place,PL_005_92024.bmp,nonlure
Emo_Nback_20180527,1,MRI,"['1', 'num_1', 'left', '2', 'num_2', 'right']",0,0,0,Emo_Nback_20180527_v1-ABCD1234,1.0.0.1180,Verdana,1,Right,59.9883864952,ABCD1234,"['2', 'num_2', 'right']",1,Professional,2.0.10.356,2.0.10.356,06/25/2018,21:41:31,Stimuli/,2.0.10.252,0,1,0,160,"['5', '7', '^', 'num_5', 'num_7', '=']",5.0,0-Back,,,,,,,,,,,,,,,,500.0,210855.0,210855.0,210355.0,210355.0,,,,,,0.0,Match,2000.0,210355.0,210355.0,208360.0,,0,0.0,208360.0,Place,PL_001_92012.bmp,target
Emo_Nback_20180527,1,MRI,"['1', 'num_1', 'left', '2', 'num_2', 'right']",0,0,0,Emo_Nback_20180527_v1-ABCD1234,1.0.0.1180,Verdana,1,Right,59.9883864952,ABCD1234,"['2', 'num_2', 'right']",1,Professional,2.0.10.356,2.0.10.356,06/25/2018,21:41:31,Stimuli/,2.0.10.252,0,1,0,160,"['5', '7', '^', 'num_5', 'num_7', '=']",5.0,0-Back,,,,,,,,,,,,,,,,500.0,213355.0,213355.0,212856.0,212856.0,,,,,,0.0,No Match,2000.0,212856.0,212856.0,210864.0,,0,0.0,210864.0,Place,PL_002_92014.bmp,nonlure
Emo_Nback_20180527,1,MRI,"['1', 'num_1', 'left', '2', 'num_2', 'right']",0,0,0,Emo_Nback_20180527_v1-ABCD1234,1.0.0.1180,Verdana,1,Right,59.9883864952,ABCD1234,"['2', 'num_2', 'right']",1,Professional,2.0.10.356,2.0.10.356,06/25/2018,21:41:31,Stimuli/,2.0.10.252,0,1,0,160,"['5', '7', '^', 'num_5', 'num_7', '=']",5.0,0-Back,,,,,,,,,,,,,,,,500.0,215856.0,215856.0,215356.0,215356.0,,,,,,0.0,No Match,2000.0,215356.0,215355.0,213361.0,,0,0.0,213360.0,Place,PL_004_92023.bmp,lure
Emo_Nback_20180527,1,MRI,"['1', 'num_1', 'left', '2', 'num_2', 'right']",0,0,0,Emo_Nback_20180527_v1-ABCD1234,1.0.0.1180,Verdana,1,Right,59.9883864952,ABCD1234,"['2', 'num_2', 'right']",1,Professional,2.0.10.356,2.0.10.356,06/25/2018,21:41:31,Stimuli/,2.0.10.252,0,1,0,160,"['5', '7', '^', 'num_5', 'num_7', '=']",5.0,0-Back,,,,,,,,,,,,,,,,500.0,218356.0,218356.0,217857.0,217857.0,,,,,,0.0,No Match,2000.0,217857.0,217856.0,215862.0,,0,0.0,215861.0,Place,PL_006_92025.bmp,lure
Emo_Nback_20180527,1,MRI,"['1', 'num_1', 'left', '2', 'num_2', 'right']",0,0,0,Emo_Nback_20180527_v1-ABCD1234,1.0.0.1180,Verdana,1,Right,59.9883864952,ABCD1234,"['2', 'num_2', 'right']",1,Professional,2.0.10.356,2.0.10.356,06/25/2018,21:41:31,Stimuli/,2.0.10.252,0,1,0,160,"['5', '7', '^', 'num_5', 'num_7', '=']",6.0,Cue2Back,2500.0,221357.0,221357.0,218857.0,218857.0,500.0,218857.0,218856.0,218362.0,218362.0,,,,,,,,,,,,,,,,,,,,,,,0,,,Faces,None,None
Emo_Nback_20180527,1,MRI,"['1', 'num_1', 'left', '2', 'num_2', 'right']",0,0,0,Emo_Nback_20180527_v1-ABCD1234,1.0.0.1180,Verdana,1,Right,59.9883864952,ABCD1234,"['2', 'num_2', 'right']",1,Professional,2.0.10.356,2.0.10.356,06/25/2018,21:41:31,Stimuli/,2.0.10.252,0,1,0,160,"['5', '7', '^', 'num_5', 'num_7', '=']",6.0,2-Back,,,,,,,,,,,,,,,,500.0,223857.0,223857.0,223356.0,223356.0,,,,,,0.0,No Match,2000.0,223356.0,223356.0,221362.0,,0,0.0,221362.0,NeutFace,AM228_NC.bmp,nonlure
Emo_Nback_20180527,1,MRI,"['1', 'num_1', 'left', '2', 'num_2', 'right']",0,0,0,Emo_Nback_20180527_v1-ABCD1234,1.0.0.1180,Verdana,1,Right,59.9883864952,ABCD1234,"['2', 'num_2', 'right']",1,Professional,2.0.10.356,2.0.10.356,06/25/2018,21:41:31,Stimuli/,2.0.10.252,0,1,0,160,"['5', '7', '^', 'num_5', 'num_7', '=']",6.0,2-Back,,,,,,,,,,,,,,,,500.0,226357.0,226357.0,225857.0,225857.0,,,,,,0.0,No Match,2000.0,225857.0,225857.0,223863.0,,0,0.0,223862.0,NeutFace,26M_NC.bmp,nonlure
Emo_Nback_20180527,1,MRI,"['1', 'num_1', 'left', '2', 'num_2', 'right']",0,0,0,Emo_Nback_20180527_v1-ABCD1234,1.0.0.1180,Verdana,1,Right,59.9883864952,ABCD1234,"['2', 'num_2', 'right']",1,Professional,2.0.10.356,2.0.10.356,06/25/2018,21:41:31,Stimuli/,2.0.10.252,0,1,0,160,"['5', '7', '^', 'num_5', 'num_7', '=']",6.0,2-Back,,,,,,,,,,,,,,,,500.0,228857.0,228857.0,228357.0,228357.0,,,,,,0.0,Match,2000.0,228357.0,228357.0,226363.0,,0,0.0,226362.0,NeutFace,AM228_NC.bmp,target
Emo_Nback_20180527,1,MRI,"['1', 'num_1', 'left', '2', 'num_2', 'right']",0,0,0,Emo_Nback_20180527_v1-ABCD1234,1.0.0.1180,Verdana,1,Right,59.9883864952,ABCD1234,"['2', 'num_2', 'right']",1,Professional,2.0.10.356,2.0.10.356,06/25/2018,21:41:31,Stimuli/,2.0.10.252,0,1,0,160,"['5', '7', '^', 'num_5', 'num_7', '=']",6.0,2-Back,,,,,,,,,,,,,,,,500.0,231358.0,231358.0,230858.0,230858.0,,,,,,0.0,No Match,2000.0,230858.0,230858.0,228863.0,,0,0.0,228863.0,NeutFace,LF227_NC.bmp,nonlure
Emo_Nback_20180527,1,MRI,"['1', 'num_1', 'left', '2', 'num_2', 'right']",0,0,0,Emo_Nback_20180527_v1-ABCD1234,1.0.0.1180,Verdana,1,Right,59.9883864952,ABCD1234,"['2', 'num_2', 'right']",1,Professional,2.0.10.356,2.0.10.356,06/25/2018,21:41:31,Stimuli/,2.0.10.252,0,1,0,160,"['5', '7', '^', 'num_5', 'num_7', '=']",6.0,2-Back,,,,,,,,,,,,,,,,500.0,233858.0,233858.0,233358.0,233358.0,,,,,,0.0,No Match,2000.0,233358.0,233358.0,231363.0,,0,0.0,231363.0,NeutFace,26M_NC.bmp,lure
Emo_Nback_20180527,1,MRI,"['1', 'num_1', 'left', '2', 'num_2', 'right']",0,0,0,Emo_Nback_20180527_v1-ABCD1234,1.0.0.1180,Verdana,1,Right,59.9883864952,ABCD1234,"['2', 'num_2', 'right']",1,Professional,2.0.10.356,2.0.10.356,06/25/2018,21:41:31,Stimuli/,2.0.10.252,0,1,0,160,"['5', '7', '^', 'num_5', 'num_7', '=']",6.0,2-Back,,,,,,,,,,,,,,,,500.0,236359.0,236358.0,235858.0,235858.0,,,,,,0.0,Match,2000.0,235858.0,235858.0,233864.0,,0,0.0,233863.0,NeutFace,LF227_NC.bmp,target
Emo_Nback_20180527,1,MRI,"['1', 'num_1', 'left', '2', 'num_2', 'right']",0,0,0,Emo_Nback_20180527_v1-ABCD1234,1.0.0.1180,Verdana,1,Right,59.9883864952,ABCD1234,"['2', 'num_2', 'right']",1,Professional,2.0.10.356,2.0.10.356,06/25/2018,21:41:31,Stimuli/,2.0.10.252,0,1,0,160,"['5', '7', '^', 'num_5', 'num_7', '=']",6.0,2-Back,,,,,,,,,,,,,,,,500.0,238859.0,238859.0,238359.0,238359.0,,,,,,0.0,No Match,2000.0,238359.0,238359.0,236367.0,,0,0.0,236367.0,NeutFace,AF206_NC.bmp,nonlure
Emo_Nback_20180527,1,MRI,"['1', 'num_1', 'left', '2', 'num_2', 'right']",0,0,0,Emo_Nback_20180527_v1-ABCD1234,1.0.0.1180,Verdana,1,Right,59.9883864952,ABCD1234,"['2', 'num_2', 'right']",1,Professional,2.0.10.356,2.0.10.356,06/25/2018,21:41:31,Stimuli/,2.0.10.252,0,1,0,160,"['5', '7', '^', 'num_5', 'num_7', '=']",6.0,2-Back,,,,,,,,,,,,,,,,500.0,241359.0,241359.0,240860.0,240860.0,,,,,,0.0,No Match,2000.0,240860.0,240859.0,238864.0,,0,0.0,238864.0,NeutFace,AF206_NC.bmp,lure
Emo_Nback_20180527,1,MRI,"['1', 'num_1', 'left', '2', 'num_2', 'right']",0,0,0,Emo_Nback_20180527_v1-ABCD1234,1.0.0.1180,Verdana,1,Right,59.9883864952,ABCD1234,"['2', 'num_2', 'right']",1,Professional,2.0.10.356,2.0.10.356,06/25/2018,21:41:31,Stimuli/,2.0.10.252,0,1,0,160,"['5', '7', '^', 'num_5', 'num_7', '=']",6.0,2-Back,,,,,,,,,,,,,,,,500.0,243859.0,243859.0,243359.0,243359.0,,,,,,0.0,No Match,2000.0,243359.0,243359.0,241368.0,,0,0.0,241368.0,NeutFace,BM03_NC.bmp,nonlure
Emo_Nback_20180527,1,MRI,"['1', 'num_1', 'left', '2', 'num_2', 'right']",0,0,0,Emo_Nback_20180527_v1-ABCD1234,1.0.0.1180,Verdana,1,Right,59.9883864952,ABCD1234,"['2', 'num_2', 'right']",1,Professional,2.0.10.356,2.0.10.356,06/25/2018,21:41:31,Stimuli/,2.0.10.252,0,1,0,160,"['5', '7', '^', 'num_5', 'num_7', '=']",6.0,2-Back,,,,,,,,,,,,,,,,500.0,246360.0,246360.0,245860.0,245860.0,,,,,,0.0,No Match,2000.0,245860.0,245860.0,243869.0,,0,0.0,243868.0,NeutFace,WF012_NC.bmp,nonlure
Emo_Nback_20180527,1,MRI,"['1', 'num_1', 'left', '2', 'num_2', 'right']",0,0,0,Emo_Nback_20180527_v1-ABCD1234,1.0.0.1180,Verdana,1,Right,59.9883864952,ABCD1234,"['2', 'num_2', 'right']",1,Professional,2.0.10.356,2.0.10.356,06/25/2018,21:41:31,Stimuli/,2.0.10.252,0,1,0,160,"['5', '7', '^', 'num_5', 'num_7', '=']",None,Fix15secPROC,,,,,,,,,,,,,,,,,,,,,15000.0,261362.0,261362.0,246362.0,246362.0,,,,,,,,0,,,None,None,None
Emo_Nback_20180527,1,MRI,"['1', 'num_1', 'left', '2', 'num_2', 'right']",0,0,0,Emo_Nback_20180527_v1-ABCD1234,1.0.0.1180,Verdana,1,Right,59.9883864952,ABCD1234,"['2', 'num_2', 'right']",1,Professional,2.0.10.356,2.0.10.356,06/25/2018,21:41:31,Stimuli/,2.0.10.252,0,1,0,160,"['5', '7', '^', 'num_5', 'num_7', '=']",7.0,Cue0Back,,,,,,500.0,261862.0,261862.0,261367.0,261367.0,2500.0,264362.0,264362.0,261862.0,261862.0,,,,,,,,,,,,,,,,,,0,,,Faces,39M_FO.bmp,target
Emo_Nback_20180527,1,MRI,"['1', 'num_1', 'left', '2', 'num_2', 'right']",0,0,0,Emo_Nback_20180527_v1-ABCD1234,1.0.0.1180,Verdana,1,Right,59.9883864952,ABCD1234,"['2', 'num_2', 'right']",1,Professional,2.0.10.356,2.0.10.356,06/25/2018,21:41:31,Stimuli/,2.0.10.252,0,1,0,160,"['5', '7', '^', 'num_5', 'num_7', '=']",7.0,0-Back,,,,,,,,,,,,,,,,500.0,266862.0,266862.0,266363.0,266363.0,,,,,,0.0,No Match,2000.0,266363.0,266363.0,264367.0,,0,0.0,264367.0,NegFace,BF003_FO.bmp,nonlure
Emo_Nback_20180527,1,MRI,"['1', 'num_1', 'left', '2', 'num_2', 'right']",0,0,0,Emo_Nback_20180527_v1-ABCD1234,1.0.0.1180,Verdana,1,Right,59.9883864952,ABCD1234,"['2', 'num_2', 'right']",1,Professional,2.0.10.356,2.0.10.356,06/25/2018,21:41:31,Stimuli/,2.0.10.252,0,1,0,160,"['5', '7', '^', 'num_5', 'num_7', '=']",7.0,0-Back,,,,,,,,,,,,,,,,500.0,269362.0,269362.0,268863.0,268863.0,,,,,,0.0,No Match,2000.0,268863.0,268863.0,266871.0,,0,0.0,266870.0,NegFace,HM05_FO.bmp,nonlure
Emo_Nback_20180527,1,MRI,"['1', 'num_1', 'left', '2', 'num_2', 'right']",0,0,0,Emo_Nback_20180527_v1-ABCD1234,1.0.0.1180,Verdana,1,Right,59.9883864952,ABCD1234,"['2', 'num_2', 'right']",1,Professional,2.0.10.356,2.0.10.356,06/25/2018,21:41:31,Stimuli/,2.0.10.252,0,1,0,160,"['5', '7', '^', 'num_5', 'num_7', '=']",7.0,0-Back,,,,,,,,,,,,,,,,500.0,271863.0,271863.0,271363.0,271363.0,,,,,,0.0,No Match,2000.0,271363.0,271363.0,269367.0,,0,0.0,269367.0,NegFace,HM05_FO.bmp,lure
Emo_Nback_20180527,1,MRI,"['1', 'num_1', 'left', '2', 'num_2', 'right']",0,0,0,Emo_Nback_20180527_v1-ABCD1234,1.0.0.1180,Verdana,1,Right,59.9883864952,ABCD1234,"['2', 'num_2', 'right']",1,Professional,2.0.10.356,2.0.10.356,06/25/2018,21:41:31,Stimuli/,2.0.10.252,0,1,0,160,"['5', '7', '^', 'num_5', 'num_7', '=']",7.0,0-Back,,,,,,,,,,,,,,,,500.0,274364.0,274363.0,273863.0,273863.0,,,,,,0.0,No Match,2000.0,273863.0,273863.0,271869.0,,0,0.0,271868.0,NegFace,10F_FO.bmp,nonlure
Emo_Nback_20180527,1,MRI,"['1', 'num_1', 'left', '2', 'num_2', 'right']",0,0,0,Emo_Nback_20180527_v1-ABCD1234,1.0.0.1180,Verdana,1,Right,59.9883864952,ABCD1234,"['2', 'num_2', 'right']",1,Professional,2.0.10.356,2.0.10.356,06/25/2018,21:41:31,Stimuli/,2.0.10.252,0,1,0,160,"['5', '7', '^', 'num_5', 'num_7', '=']",7.0,0-Back,,,,,,,,,,,,,,,,500.0,276865.0,276865.0,276364.0,276364.0,,,,,,0.0,No Match,2000.0,276364.0,276364.0,274374.0,,0,0.0,274374.0,NegFace,BF09_FO.bmp,nonlure
Emo_Nback_20180527,1,MRI,"['1', 'num_1', 'left', '2', 'num_2', 'right']",0,0,0,Emo_Nback_20180527_v1-ABCD1234,1.0.0.1180,Verdana,1,Right,59.9883864952,ABCD1234,"['2', 'num_2', 'right']",1,Professional,2.0.10.356,2.0.10.356,06/25/2018,21:41:31,Stimuli/,2.0.10.252,0,1,0,160,"['5', '7', '^', 'num_5', 'num_7', '=']",7.0,0-Back,,,,,,,,,,,,,,,,500.0,279362.0,279362.0,278865.0,278865.0,,,,,,0.0,No Match,2000.0,278865.0,278864.0,276874.0,,0,0.0,276873.0,NegFace,28M_FO.bmp,nonlure
Emo_Nback_20180527,1,MRI,"['1', 'num_1', 'left', '2', 'num_2', 'right']",0,0,0,Emo_Nback_20180527_v1-ABCD1234,1.0.0.1180,Verdana,1,Right,59.9883864952,ABCD1234,"['2', 'num_2', 'right']",1,Professional,2.0.10.356,2.0.10.356,06/25/2018,21:41:31,Stimuli/,2.0.10.252,0,1,0,160,"['5', '7', '^', 'num_5', 'num_7', '=']",7.0,0-Back,,,,,,,,,,,,,,,,500.0,281865.0,281865.0,281364.0,281364.0,,,,,,0.0,No Match,2000.0,281364.0,281364.0,279368.0,,0,0.0,279367.0,NegFace,BF003_FO.bmp,lure
Emo_Nback_20180527,1,MRI,"['1', 'num_1', 'left', '2', 'num_2', 'right']",0,0,0,Emo_Nback_20180527_v1-ABCD1234,1.0.0.1180,Verdana,1,Right,59.9883864952,ABCD1234,"['2', 'num_2', 'right']",1,Professional,2.0.10.356,2.0.10.356,06/25/2018,21:41:31,Stimuli/,2.0.10.252,0,1,0,160,"['5', '7', '^', 'num_5', 'num_7', '=']",7.0,0-Back,,,,,,,,,,,,,,,,500.0,284369.0,284369.0,283864.0,283864.0,,,,,,0.0,Match,2000.0,283864.0,283863.0,281869.0,,0,0.0,281869.0,NegFace,39M_FO.bmp,target
Emo_Nback_20180527,1,MRI,"['1', 'num_1', 'left', '2', 'num_2', 'right']",0,0,0,Emo_Nback_20180527_v1-ABCD1234,1.0.0.1180,Verdana,1,Right,59.9883864952,ABCD1234,"['2', 'num_2', 'right']",1,Professional,2.0.10.356,2.0.10.356,06/25/2018,21:41:31,Stimuli/,2.0.10.252,0,1,0,160,"['5', '7', '^', 'num_5', 'num_7', '=']",7.0,0-Back,,,,,,,,,,,,,,,,500.0,286865.0,286865.0,286370.0,286369.0,,,,,,0.0,No Match,2000.0,286369.0,286369.0,284374.0,,0,0.0,284373.0,NegFace,10F_FO.bmp,lure
Emo_Nback_20180527,1,MRI,"['1', 'num_1', 'left', '2', 'num_2', 'right']",0,0,0,Emo_Nback_20180527_v1-ABCD1234,1.0.0.1180,Verdana,1,Right,59.9883864952,ABCD1234,"['2', 'num_2', 'right']",1,Professional,2.0.10.356,2.0.10.356,06/25/2018,21:41:31,Stimuli/,2.0.10.252,0,1,0,160,"['5', '7', '^', 'num_5', 'num_7', '=']",7.0,0-Back,,,,,,,,,,,,,,,,500.0,289364.0,289364.0,288864.0,288864.0,,,,,,0.0,Match,2000.0,288864.0,288864.0,286870.0,,0,0.0,286869.0,NegFace,39M_FO.bmp,target
Emo_Nback_20180527,1,MRI,"['1', 'num_1', 'left', '2', 'num_2', 'right']",0,0,0,Emo_Nback_20180527_v1-ABCD1234,1.0.0.1180,Verdana,1,Right,59.9883864952,ABCD1234,"['2', 'num_2', 'right']",1,Professional,2.0.10.356,2.0.10.356,06/25/2018,21:41:31,Stimuli/,2.0.10.252,0,1,0,160,"['5', '7', '^', 'num_5', 'num_7', '=']",8.0,Cue2Back,2500.0,292365.0,292365.0,289868.0,289868.0,500.0,289868.0,289868.0,289371.0,289371.0,,,,,,,,,,,,,,,,,,,,,,,0,,,Faces,None,None
Emo_Nback_20180527,1,MRI,"['1', 'num_1', 'left', '2', 'num_2', 'right']",0,0,0,Emo_Nback_20180527_v1-ABCD1234,1.0.0.1180,Verdana,1,Right,59.9883864952,ABCD1234,"['2', 'num_2', 'right']",1,Professional,2.0.10.356,2.0.10.356,06/25/2018,21:41:31,Stimuli/,2.0.10.252,0,1,0,160,"['5', '7', '^', 'num_5', 'num_7', '=']",8.0,2-Back,,,,,,,,,,,,,,,,500.0,294865.0,294865.0,294369.0,294369.0,,,,,,0.0,No Match,2000.0,294369.0,294369.0,292369.0,,0,0.0,292369.0,Place,PL_007_92026.bmp,nonlure
Emo_Nback_20180527,1,MRI,"['1', 'num_1', 'left', '2', 'num_2', 'right']",0,0,0,Emo_Nback_20180527_v1-ABCD1234,1.0.0.1180,Verdana,1,Right,59.9883864952,ABCD1234,"['2', 'num_2', 'right']",1,Professional,2.0.10.356,2.0.10.356,06/25/2018,21:41:31,Stimuli/,2.0.10.252,0,1,0,160,"['5', '7', '^', 'num_5', 'num_7', '=']",8.0,2-Back,,,,,,,,,,,,,,,,500.0,297364.0,297364.0,296865.0,296865.0,,,,,,0.0,No Match,2000.0,296865.0,296865.0,294870.0,,0,0.0,294869.0,Place,PL_007_92026.bmp,lure
Emo_Nback_20180527,1,MRI,"['1', 'num_1', 'left', '2', 'num_2', 'right']",0,0,0,Emo_Nback_20180527_v1-ABCD1234,1.0.0.1180,Verdana,1,Right,59.9883864952,ABCD1234,"['2', 'num_2', 'right']",1,Professional,2.0.10.356,2.0.10.356,06/25/2018,21:41:31,Stimuli/,2.0.10.252,0,1,0,160,"['5', '7', '^', 'num_5', 'num_7', '=']",8.0,2-Back,,,,,,,,,,,,,,,,500.0,299855.0,299855.0,299366.0,299366.0,,,,,,0.0,No Match,2000.0,299366.0,299366.0,297369.0,,0,0.0,297368.0,Place,PL_010_92038.bmp,nonlure
Emo_Nback_20180527,1,MRI,"['1', 'num_1', 'left', '2', 'num_2', 'right']",0,0,0,Emo_Nback_20180527_v1-ABCD1234,1.0.0.1180,Verdana,1,Right,59.9883864952,ABCD1234,"['2', 'num_2', 'right']",1,Professional,2.0.10.356,2.0.10.356,06/25/2018,21:41:31,Stimuli/,2.0.10.252,0,1,0,160,"['5', '7', '^', 'num_5', 'num_7', '=']",8.0,2-Back,,,,,,,,,,,,,,,,500.0,302366.0,302365.0,301872.0,301872.0,,,,,,0.0,No Match,2000.0,301872.0,301872.0,299859.0,,0,0.0,299859.0,Place,PL_009_92037.bmp,nonlure
Emo_Nback_20180527,1,MRI,"['1', 'num_1', 'left', '2', 'num_2', 'right']",0,0,0,Emo_Nback_20180527_v1-ABCD1234,1.0.0.1180,Verdana,1,Right,59.9883864952,ABCD1234,"['2', 'num_2', 'right']",1,Professional,2.0.10.356,2.0.10.356,06/25/2018,21:41:31,Stimuli/,2.0.10.252,0,1,0,160,"['5', '7', '^', 'num_5', 'num_7', '=']",8.0,2-Back,,,,,,,,,,,,,,,,500.0,304856.0,304856.0,304367.0,304366.0,,,,,,0.0,Match,2000.0,304366.0,304366.0,302371.0,,0,0.0,302371.0,Place,PL_010_92038.bmp,target
Emo_Nback_20180527,1,MRI,"['1', 'num_1', 'left', '2', 'num_2', 'right']",0,0,0,Emo_Nback_20180527_v1-ABCD1234,1.0.0.1180,Verdana,1,Right,59.9883864952,ABCD1234,"['2', 'num_2', 'right']",1,Professional,2.0.10.356,2.0.10.356,06/25/2018,21:41:31,Stimuli/,2.0.10.252,0,1,0,160,"['5', '7', '^', 'num_5', 'num_7', '=']",8.0,2-Back,,,,,,,,,,,,,,,,500.0,307356.0,307356.0,306867.0,306866.0,,,,,,0.0,Match,2000.0,306866.0,306866.0,304860.0,,0,0.0,304860.0,Place,PL_009_92037.bmp,target
Emo_Nback_20180527,1,MRI,"['1', 'num_1', 'left', '2', 'num_2', 'right']",0,0,0,Emo_Nback_20180527_v1-ABCD1234,1.0.0.1180,Verdana,1,Right,59.9883864952,ABCD1234,"['2', 'num_2', 'right']",1,Professional,2.0.10.356,2.0.10.356,06/25/2018,21:41:31,Stimuli/,2.0.10.252,0,1,0,160,"['5', '7', '^', 'num_5', 'num_7', '=']",8.0,2-Back,,,,,,,,,,,,,,,,500.0,309868.0,309868.0,309368.0,309368.0,,,,,,0.0,No Match,2000.0,309368.0,309368.0,307363.0,,0,0.0,307363.0,Place,PL_008_92033.bmp,nonlure
Emo_Nback_20180527,1,MRI,"['1', 'num_1', 'left', '2', 'num_2', 'right']",0,0,0,Emo_Nback_20180527_v1-ABCD1234,1.0.0.1180,Verdana,1,Right,59.9883864952,ABCD1234,"['2', 'num_2', 'right']",1,Professional,2.0.10.356,2.0.10.356,06/25/2018,21:41:31,Stimuli/,2.0.10.252,0,1,0,160,"['5', '7', '^', 'num_5', 'num_7', '=']",8.0,2-Back,,,,,,,,,,,,,,,,500.0,312367.0,312367.0,311868.0,311868.0,,,,,,0.0,No Match,2000.0,311868.0,311868.0,309874.0,,0,0.0,309874.0,Place,PL_012_92047.bmp,nonlure
Emo_Nback_20180527,1,MRI,"['1', 'num_1', 'left', '2', 'num_2', 'right']",0,0,0,Emo_Nback_20180527_v1-ABCD1234,1.0.0.1180,Verdana,1,Right,59.9883864952,ABCD1234,"['2', 'num_2', 'right']",1,Professional,2.0.10.356,2.0.10.356,06/25/2018,21:41:31,Stimuli/,2.0.10.252,0,1,0,160,"['5', '7', '^', 'num_5', 'num_7', '=']",8.0,2-Back,,,,,,,,,,,,,,,,500.0,314868.0,314868.0,314372.0,314372.0,,,,,,0.0,No Match,2000.0,314372.0,314372.0,312371.0,,0,0.0,312371.0,Place,PL_012_92047.bmp,lure
Emo_Nback_20180527,1,MRI,"['1', 'num_1', 'left', '2', 'num_2', 'right']",0,0,0,Emo_Nback_20180527_v1-ABCD1234,1.0.0.1180,Verdana,1,Right,59.9883864952,ABCD1234,"['2', 'num_2', 'right']",1,Professional,2.0.10.356,2.0.10.356,06/25/2018,21:41:31,Stimuli/,2.0.10.252,0,1,0,160,"['5', '7', '^', 'num_5', 'num_7', '=']",8.0,2-Back,,,,,,,,,,,,,,,,500.0,317368.0,317368.0,316870.0,316870.0,,,,,,0.0,No Match,2000.0,316870.0,316870.0,314876.0,,0,0.0,314875.0,Place,PL_011_92044.bmp,nonlure
Emo_Nback_20180527,1,MRI,"['1', 'num_1', 'left', '2', 'num_2', 'right']",0,0,0,Emo_Nback_20180527_v1-ABCD1234,1.0.0.1180,Verdana,1,Right,59.9883864952,ABCD1234,"['2', 'num_2', 'right']",1,Professional,2.0.10.356,2.0.10.356,06/25/2018,21:41:31,Stimuli/,2.0.10.252,0,1,0,160,"['5', '7', '^', 'num_5', 'num_7', '=']",None,Fix15secPROC,,,,,,,,,,,,,,,,,,,,,15000.0,332355.0,332354.0,317370.0,317370.0,,,,,,,,0,,,None,None,None
Emo_Nback_20180527,1,MRI,"['1', 'num_1', 'left', '2', 'num_2', 'right']",0,0,0,Emo_Nback_20180527_v1-ABCD1234,1.0.0.1180,Verdana,1,Right,59.9883864952,ABCD1234,"['2', 'num_2', 'right']",1,Professional,2.0.10.356,2.0.10.356,06/25/2018,21:41:31,Stimuli/,2.0.10.252,0,1,0,160,"['5', '7', '^', 'num_5', 'num_7', '=']",,Cue2Back,2500.0,419884.0,419884.0,417384.0,417384.0,500.0,417384.0,417384.0,416870.0,416870.0,,,,,,,,,,,,,,,,,,,,,,,0,,,Faces,,
Emo_Nback_20180527,1,MRI,"['1', 'num_1', 'left', '2', 'num_2', 'right']",0,0,0,Emo_Nback_20180527_v1-ABCD1234,1.0.0.1180,Verdana,1,Right,59.9883864952,ABCD1234,"['2', 'num_2', 'right']",1,Professional,2.0.10.356,2.0.10.356,06/25/2018,21:41:31,Stimuli/,2.0.10.252,0,1,0,160,"['5', '7', '^', 'num_5', 'num_7', '=']",1,2-Back,,,,,,,,,,,,,,,,500.0,422381.0,422381.0,421882.0,421882.0,,,,,,0.0,No Match,2000.0,421882.0,421882.0,419892.0,,0,0.0,419892.0,NegFace,16F_FO.bmp,nonlure
Emo_Nback_20180527,1,MRI,"['1', 'num_1', 'left', '2', 'num_2', 'right']",0,0,0,Emo_Nback_20180527_v1-ABCD1234,1.0.0.1180,Verdana,1,Right,59.9883864952,ABCD1234,"['2', 'num_2', 'right']",1,Professional,2.0.10.356,2.0.10.356,06/25/2018,21:41:31,Stimuli/,2.0.10.252,0,1,0,160,"['5', '7', '^', 'num_5', 'num_7', '=']",1,2-Back,,,,,,,,,,,,,,,,500.0,424881.0,424881.0,424382.0,424382.0,,,,,,0.0,No Match,2000.0,424382.0,424382.0,422391.0,,0,0.0,422390.0,NegFace,1F_FO.bmp,nonlure
Emo_Nback_20180527,1,MRI,"['1', 'num_1', 'left', '2', 'num_2', 'right']",0,0,0,Emo_Nback_20180527_v1-ABCD1234,1.0.0.1180,Verdana,1,Right,59.9883864952,ABCD1234,"['2', 'num_2', 'right']",1,Professional,2.0.10.356,2.0.10.356,06/25/2018,21:41:31,Stimuli/,2.0.10.252,0,1,0,160,"['5', '7', '^', 'num_5', 'num_7', '=']",1,2-Back,,,,,,,,,,,,,,,,500.0,427381.0,427381.0,426882.0,426882.0,,,,,,0.0,No Match,2000.0,426882.0,426882.0,424886.0,,0,0.0,424886.0,NegFace,BM023_FO.bmp,nonlure
Emo_Nback_20180527,1,MRI,"['1', 'num_1', 'left', '2', 'num_2', 'right']",0,0,0,Emo_Nback_20180527_v1-ABCD1234,1.0.0.1180,Verdana,1,Right,59.9883864952,ABCD1234,"['2', 'num_2', 'right']",1,Professional,2.0.10.356,2.0.10.356,06/25/2018,21:41:31,Stimuli/,2.0.10.252,0,1,0,160,"['5', '7', '^', 'num_5', 'num_7', '=']",1,2-Back,,,,,,,,,,,,,,,,500.0,429882.0,429882.0,429382.0,429382.0,,,,,,0.0,No Match,2000.0,429382.0,429382.0,427386.0,,0,0.0,427386.0,NegFace,16F_FO.bmp,lure
Emo_Nback_20180527,1,MRI,"['1', 'num_1', 'left', '2', 'num_2', 'right']",0,0,0,Emo_Nback_20180527_v1-ABCD1234,1.0.0.1180,Verdana,1,Right,59.9883864952,ABCD1234,"['2', 'num_2', 'right']",1,Professional,2.0.10.356,2.0.10.356,06/25/2018,21:41:31,Stimuli/,2.0.10.252,0,1,0,160,"['5', '7', '^', 'num_5', 'num_7', '=']",1,2-Back,,,,,,,,,,,,,,,,500.0,432369.0,432368.0,431867.0,431867.0,,,,,,0.0,Match,2000.0,431867.0,431867.0,429886.0,,0,0.0,429886.0,NegFace,BM023_FO.bmp,target
Emo_Nback_20180527,1,MRI,"['1', 'num_1', 'left', '2', 'num_2', 'right']",0,0,0,Emo_Nback_20180527_v1-ABCD1234,1.0.0.1180,Verdana,1,Right,59.9883864952,ABCD1234,"['2', 'num_2', 'right']",1,Professional,2.0.10.356,2.0.10.356,06/25/2018,21:41:31,Stimuli/,2.0.10.252,0,1,0,160,"['5', '7', '^', 'num_5', 'num_7', '=']",1,2-Back,,,,,,,,,,,,,,,,500.0,434869.0,434869.0,434369.0,434369.0,,,,,,0.0,No Match,2000.0,434369.0,434369.0,432372.0,,0,0.0,432372.0,NegFace,3F_FO.bmp,nonlure
Emo_Nback_20180527,1,MRI,"['1', 'num_1', 'left', '2', 'num_2', 'right']",0,0,0,Emo_Nback_20180527_v1-ABCD1234,1.0.0.1180,Verdana,1,Right,59.9883864952,ABCD1234,"['2', 'num_2', 'right']",1,Professional,2.0.10.356,2.0.10.356,06/25/2018,21:41:31,Stimuli/,2.0.10.252,0,1,0,160,"['5', '7', '^', 'num_5', 'num_7', '=']",1,2-Back,,,,,,,,,,,,,,,,500.0,437369.0,437369.0,436870.0,436870.0,,,,,,0.0,No Match,2000.0,436870.0,436870.0,434874.0,,0,0.0,434874.0,NegFace,AM05_FO.bmp,nonlure
Emo_Nback_20180527,1,MRI,"['1', 'num_1', 'left', '2', 'num_2', 'right']",0,0,0,Emo_Nback_20180527_v1-ABCD1234,1.0.0.1180,Verdana,1,Right,59.9883864952,ABCD1234,"['2', 'num_2', 'right']",1,Professional,2.0.10.356,2.0.10.356,06/25/2018,21:41:31,Stimuli/,2.0.10.252,0,1,0,160,"['5', '7', '^', 'num_5', 'num_7', '=']",1,2-Back,,,,,,,,,,,,,,,,500.0,439869.0,439869.0,439370.0,439370.0,,,,,,0.0,Match,2000.0,439370.0,439369.0,437373.0,,0,0.0,437373.0,NegFace,3F_FO.bmp,target
Emo_Nback_20180527,1,MRI,"['1', 'num_1', 'left', '2', 'num_2', 'right']",0,0,0,Emo_Nback_20180527_v1-ABCD1234,1.0.0.1180,Verdana,1,Right,59.9883864952,ABCD1234,"['2', 'num_2', 'right']",1,Professional,2.0.10.356,2.0.10.356,06/25/2018,21:41:31,Stimuli/,2.0.10.252,0,1,0,160,"['5', '7', '^', 'num_5', 'num_7', '=']",1,2-Back,,,,,,,,,,,,,,,,500.0,442371.0,442371.0,441870.0,441870.0,,,,,,0.0,No Match,2000.0,441870.0,441870.0,439875.0,,0,0.0,439875.0,NegFace,WM003_FO.bmp,nonlure
Emo_Nback_20180527,1,MRI,"['1', 'num_1', 'left', '2', 'num_2', 'right']",0,0,0,Emo_Nback_20180527_v1-ABCD1234,1.0.0.1180,Verdana,1,Right,59.9883864952,ABCD1234,"['2', 'num_2', 'right']",1,Professional,2.0.10.356,2.0.10.356,06/25/2018,21:41:31,Stimuli/,2.0.10.252,0,1,0,160,"['5', '7', '^', 'num_5', 'num_7', '=']",1,2-Back,,,,,,,,,,,,,,,,500.0,444870.0,444870.0,444370.0,444370.0,,,,,,0.0,No Match,2000.0,444370.0,444370.0,442376.0,,0,0.0,442376.0,NegFace,AM05_FO.bmp,lure
Emo_Nback_20180527,1,MRI,"['1', 'num_1', 'left', '2', 'num_2', 'right']",0,0,0,Emo_Nback_20180527_v1-ABCD1234,1.0.0.1180,Verdana,1,Right,59.9883864952,ABCD1234,"['2', 'num_2', 'right']",1,Professional,2.0.10.356,2.0.10.356,06/25/2018,21:41:31,Stimuli/,2.0.10.252,0,1,0,160,"['5', '7', '^', 'num_5', 'num_7', '=']",2,Cue0Back,,,,,,500.0,445370.0,445370.0,444874.0,444874.0,2500.0,447871.0,447871.0,445371.0,445370.0,,,,,,,,,,,,,,,,,,0,,,Faces,19F_HO.bmp,target
Emo_Nback_20180527,1,MRI,"['1', 'num_1', 'left', '2', 'num_2', 'right']",0,0,0,Emo_Nback_20180527_v1-ABCD1234,1.0.0.1180,Verdana,1,Right,59.9883864952,ABCD1234,"['2', 'num_2', 'right']",1,Professional,2.0.10.356,2.0.10.356,06/25/2018,21:41:31,Stimuli/,2.0.10.252,0,1,0,160,"['5', '7', '^', 'num_5', 'num_7', '=']",2,0-Back,,,,,,,,,,,,,,,,500.0,450372.0,450372.0,449871.0,449871.0,,,,,,0.0,No Match,2000.0,449871.0,449871.0,447875.0,,0,0.0,447875.0,PosFace,32M_HO.bmp,nonlure
Emo_Nback_20180527,1,MRI,"['1', 'num_1', 'left', '2', 'num_2', 'right']",0,0,0,Emo_Nback_20180527_v1-ABCD1234,1.0.0.1180,Verdana,1,Right,59.9883864952,ABCD1234,"['2', 'num_2', 'right']",1,Professional,2.0.10.356,2.0.10.356,06/25/2018,21:41:31,Stimuli/,2.0.10.252,0,1,0,160,"['5', '7', '^', 'num_5', 'num_7', '=']",2,0-Back,,,,,,,,,,,,,,,,500.0,452879.0,452879.0,452369.0,452369.0,,,,,,0.0,No Match,2000.0,452369.0,452369.0,450381.0,,0,0.0,450380.0,PosFace,BF016_HO.bmp,nonlure
Emo_Nback_20180527,1,MRI,"['1', 'num_1', 'left', '2', 'num_2', 'right']",0,0,0,Emo_Nback_20180527_v1-ABCD1234,1.0.0.1180,Verdana,1,Right,59.9883864952,ABCD1234,"['2', 'num_2', 'right']",1,Professional,2.0.10.356,2.0.10.356,06/25/2018,21:41:31,Stimuli/,2.0.10.252,0,1,0,160,"['5', '7', '^', 'num_5', 'num_7', '=']",2,0-Back,,,,,,,,,,,,,,,,500.0,455371.0,455371.0,454871.0,454871.0,,,,,,0.0,No Match,2000.0,454871.0,454870.0,452884.0,,0,0.0,452883.0,PosFace,BM06_HO.bmp,nonlure
Emo_Nback_20180527,1,MRI,"['1', 'num_1', 'left', '2', 'num_2', 'right']",0,0,0,Emo_Nback_20180527_v1-ABCD1234,1.0.0.1180,Verdana,1,Right,59.9883864952,ABCD1234,"['2', 'num_2', 'right']",1,Professional,2.0.10.356,2.0.10.356,06/25/2018,21:41:31,Stimuli/,2.0.10.252,0,1,0,160,"['5', '7', '^', 'num_5', 'num_7', '=']",2,0-Back,,,,,,,,,,,,,,,,500.0,457869.0,457869.0,457371.0,457371.0,,,,,,0.0,No Match,2000.0,457371.0,457371.0,455375.0,,0,0.0,455374.0,PosFace,BF016_HO.bmp,lure
Emo_Nback_20180527,1,MRI,"['1', 'num_1', 'left', '2', 'num_2', 'right']",0,0,0,Emo_Nback_20180527_v1-ABCD1234,1.0.0.1180,Verdana,1,Right,59.9883864952,ABCD1234,"['2', 'num_2', 'right']",1,Professional,2.0.10.356,2.0.10.356,06/25/2018,21:41:31,Stimuli/,2.0.10.252,0,1,0,160,"['5', '7', '^', 'num_5', 'num_7', '=']",2,0-Back,,,,,,,,,,,,,,,,500.0,460373.0,460373.0,459871.0,459871.0,,,,,,0.0,Match,2000.0,459871.0,459871.0,457875.0,,0,0.0,457875.0,PosFace,19F_HO.bmp,target
Emo_Nback_20180527,1,MRI,"['1', 'num_1', 'left', '2', 'num_2', 'right']",0,0,0,Emo_Nback_20180527_v1-ABCD1234,1.0.0.1180,Verdana,1,Right,59.9883864952,ABCD1234,"['2', 'num_2', 'right']",1,Professional,2.0.10.356,2.0.10.356,06/25/2018,21:41:31,Stimuli/,2.0.10.252,0,1,0,160,"['5', '7', '^', 'num_5', 'num_7', '=']",2,0-Back,,,,,,,,,,,,,,,,500.0,462871.0,462871.0,462370.0,462370.0,,,,,,0.0,No Match,2000.0,462370.0,462370.0,460377.0,,0,0.0,460377.0,PosFace,32M_HO.bmp,lure
Emo_Nback_20180527,1,MRI,"['1', 'num_1', 'left', '2', 'num_2', 'right']",0,0,0,Emo_Nback_20180527_v1-ABCD1234,1.0.0.1180,Verdana,1,Right,59.9883864952,ABCD1234,"['2', 'num_2', 'right']",1,Professional,2.0.10.356,2.0.10.356,06/25/2018,21:41:31,Stimuli/,2.0.10.252,0,1,0,160,"['5', '7', '^', 'num_5', 'num_7', '=']",2,0-Back,,,,,,,,,,,,,,,,500.0,465370.0,465370.0,464872.0,464872.0,,,,,,0.0,No Match,2000.0,464872.0,464872.0,462880.0,,0,0.0,462880.0,PosFace,20M_HO.bmp,nonlure
Emo_Nback_20180527,1,MRI,"['1', 'num_1', 'left', '2', 'num_2', 'right']",0,0,0,Emo_Nback_20180527_v1-ABCD1234,1.0.0.1180,Verdana,1,Right,59.9883864952,ABCD1234,"['2', 'num_2', 'right']",1,Professional,2.0.10.356,2.0.10.356,06/25/2018,21:41:31,Stimuli/,2.0.10.252,0,1,0,160,"['5', '7', '^', 'num_5', 'num_7', '=']",2,0-Back,,,,,,,,,,,,,,,,500.0,467873.0,467873.0,467374.0,467374.0,,,,,,0.0,Match,2000.0,467374.0,467374.0,465374.0,,0,0.0,465374.0,PosFace,19F_HO.bmp,target
Emo_Nback_20180527,1,MRI,"['1', 'num_1', 'left', '2', 'num_2', 'right']",0,0,0,Emo_Nback_20180527_v1-ABCD1234,1.0.0.1180,Verdana,1,Right,59.9883864952,ABCD1234,"['2', 'num_2', 'right']",1,Professional,2.0.10.356,2.0.10.356,06/25/2018,21:41:31,Stimuli/,2.0.10.252,0,1,0,160,"['5', '7', '^', 'num_5', 'num_7', '=']",2,0-Back,,,,,,,,,,,,,,,,500.0,470372.0,470372.0,469873.0,469873.0,,,,,,0.0,No Match,2000.0,469873.0,469873.0,467879.0,,0,0.0,467879.0,PosFace,WF007_HO.bmp,nonlure
Emo_Nback_20180527,1,MRI,"['1', 'num_1', 'left', '2', 'num_2', 'right']",0,0,0,Emo_Nback_20180527_v1-ABCD1234,1.0.0.1180,Verdana,1,Right,59.9883864952,ABCD1234,"['2', 'num_2', 'right']",1,Professional,2.0.10.356,2.0.10.356,06/25/2018,21:41:31,Stimuli/,2.0.10.252,0,1,0,160,"['5', '7', '^', 'num_5', 'num_7', '=']",2,0-Back,,,,,,,,,,,,,,,,500.0,472872.0,472871.0,472372.0,472372.0,,,,,,0.0,No Match,2000.0,472372.0,472372.0,470378.0,,0,0.0,470377.0,PosFace,BM06_HO.bmp,lure
Emo_Nback_20180527,1,MRI,"['1', 'num_1', 'left', '2', 'num_2', 'right']",0,0,0,Emo_Nback_20180527_v1-ABCD1234,1.0.0.1180,Verdana,1,Right,59.9883864952,ABCD1234,"['2', 'num_2', 'right']",1,Professional,2.0.10.356,2.0.10.356,06/25/2018,21:41:31,Stimuli/,2.0.10.252,0,1,0,160,"['5', '7', '^', 'num_5', 'num_7', '=']",None,Fix15secPROC,,,,,,,,,,,,,,,,,,,,,15000.0,487873.0,487873.0,472873.0,472873.0,,,,,,,,0,,,None,None,None
Emo_Nback_20180527,1,MRI,"['1', 'num_1', 'left', '2', 'num_2', 'right']",0,0,0,Emo_Nback_20180527_v1-ABCD1234,1.0.0.1180,Verdana,1,Right,59.9883864952,ABCD1234,"['2', 'num_2', 'right']",1,Professional,2.0.10.356,2.0.10.356,06/25/2018,21:41:31,Stimuli/,2.0.10.252,0,1,0,160,"['5', '7', '^', 'num_5', 'num_7', '=']",None,Cue2Back,2500.0,490875.0,490875.0,488379.0,488378.0,500.0,488378.0,488378.0,487879.0,487879.0,,,,,,,,,,,,,,,,,,,,,,,0,,,Faces,None,None
Emo_Nback_20180527,1,MRI,"['1', 'num_1', 'left', '2', 'num_2', 'right']",0,0,0,Emo_Nback_20180527_v1-ABCD1234,1.0.0.1180,Verdana,1,Right,59.9883864952,ABCD1234,"['2', 'num_2', 'right']",1,Professional,2.0.10.356,2.0.10.356,06/25/2018,21:41:31,Stimuli/,2.0.10.252,0,1,0,160,"['5', '7', '^', 'num_5', 'num_7', '=']",3,2-Back,,,,,,,,,,,,,,,,500.0,493376.0,493376.0,492877.0,492877.0,,,,,,0.0,No Match,2000.0,492877.0,492877.0,490883.0,,0,0.0,490882.0,NeutFace,LM211_NC.bmp,nonlure
Emo_Nback_20180527,1,MRI,"['1', 'num_1', 'left', '2', 'num_2', 'right']",0,0,0,Emo_Nback_20180527_v1-ABCD1234,1.0.0.1180,Verdana,1,Right,59.9883864952,ABCD1234,"['2', 'num_2', 'right']",1,Professional,2.0.10.356,2.0.10.356,06/25/2018,21:41:31,Stimuli/,2.0.10.252,0,1,0,160,"['5', '7', '^', 'num_5', 'num_7', '=']",3,2-Back,,,,,,,,,,,,,,,,500.0,495875.0,495875.0,495384.0,495384.0,,,,,,0.0,No Match,2000.0,495384.0,495384.0,493379.0,,0,0.0,493379.0,NeutFace,AF216_NC.bmp,nonlure
Emo_Nback_20180527,1,MRI,"['1', 'num_1', 'left', '2', 'num_2', 'right']",0,0,0,Emo_Nback_20180527_v1-ABCD1234,1.0.0.1180,Verdana,1,Right,59.9883864952,ABCD1234,"['2', 'num_2', 'right']",1,Professional,2.0.10.356,2.0.10.356,06/25/2018,21:41:31,Stimuli/,2.0.10.252,0,1,0,160,"['5', '7', '^', 'num_5', 'num_7', '=']",3,2-Back,,,,,,,,,,,,,,,,500.0,498381.0,498381.0,497877.0,497877.0,,,,,,0.0,No Match,2000.0,497877.0,497877.0,495880.0,,0,0.0,495880.0,NeutFace,AF216_NC.bmp,lure
Emo_Nback_20180527,1,MRI,"['1', 'num_1', 'left', '2', 'num_2', 'right']",0,0,0,Emo_Nback_20180527_v1-ABCD1234,1.0.0.1180,Verdana,1,Right,59.9883864952,ABCD1234,"['2', 'num_2', 'right']",1,Professional,2.0.10.356,2.0.10.356,06/25/2018,21:41:31,Stimuli/,2.0.10.252,0,1,0,160,"['5', '7', '^', 'num_5', 'num_7', '=']",3,2-Back,,,,,,,,,,,,,,,,500.0,500881.0,500881.0,500376.0,500376.0,,,,,,0.0,No Match,2000.0,500376.0,500376.0,498388.0,,0,0.0,498388.0,NeutFace,WM04_NC.bmp,nonlure
Emo_Nback_20180527,1,MRI,"['1', 'num_1', 'left', '2', 'num_2', 'right']",0,0,0,Emo_Nback_20180527_v1-ABCD1234,1.0.0.1180,Verdana,1,Right,59.9883864952,ABCD1234,"['2', 'num_2', 'right']",1,Professional,2.0.10.356,2.0.10.356,06/25/2018,21:41:31,Stimuli/,2.0.10.252,0,1,0,160,"['5', '7', '^', 'num_5', 'num_7', '=']",3,2-Back,,,,,,,,,,,,,,,,500.0,503375.0,503375.0,502882.0,502882.0,,,,,,0.0,No Match,2000.0,502882.0,502882.0,500885.0,,0,0.0,500885.0,NeutFace,WM04_NC.bmp,lure
Emo_Nback_20180527,1,MRI,"['1', 'num_1', 'left', '2', 'num_2', 'right']",0,0,0,Emo_Nback_20180527_v1-ABCD1234,1.0.0.1180,Verdana,1,Right,59.9883864952,ABCD1234,"['2', 'num_2', 'right']",1,Professional,2.0.10.356,2.0.10.356,06/25/2018,21:41:31,Stimuli/,2.0.10.252,0,1,0,160,"['5', '7', '^', 'num_5', 'num_7', '=']",3,2-Back,,,,,,,,,,,,,,,,500.0,505876.0,505876.0,505382.0,505382.0,,,,,,0.0,No Match,2000.0,505382.0,505382.0,503383.0,,0,0.0,503383.0,NeutFace,14F_NC.bmp,nonlure
Emo_Nback_20180527,1,MRI,"['1', 'num_1', 'left', '2', 'num_2', 'right']",0,0,0,Emo_Nback_20180527_v1-ABCD1234,1.0.0.1180,Verdana,1,Right,59.9883864952,ABCD1234,"['2', 'num_2', 'right']",1,Professional,2.0.10.356,2.0.10.356,06/25/2018,21:41:31,Stimuli/,2.0.10.252,0,1,0,160,"['5', '7', '^', 'num_5', 'num_7', '=']",3,2-Back,,,,,,,,,,,,,,,,500.0,508376.0,508376.0,507877.0,507877.0,,,,,,0.0,No Match,2000.0,507877.0,507877.0,505881.0,,0,0.0,505881.0,NeutFace,AM210_NC.bmp,nonlure
Emo_Nback_20180527,1,MRI,"['1', 'num_1', 'left', '2', 'num_2', 'right']",0,0,0,Emo_Nback_20180527_v1-ABCD1234,1.0.0.1180,Verdana,1,Right,59.9883864952,ABCD1234,"['2', 'num_2', 'right']",1,Professional,2.0.10.356,2.0.10.356,06/25/2018,21:41:31,Stimuli/,2.0.10.252,0,1,0,160,"['5', '7', '^', 'num_5', 'num_7', '=']",3,2-Back,,,,,,,,,,,,,,,,500.0,510877.0,510877.0,510377.0,510377.0,,,,,,0.0,No Match,2000.0,510377.0,510377.0,508382.0,,0,0.0,508382.0,NeutFace,WF02_NC.bmp,nonlure
Emo_Nback_20180527,1,MRI,"['1', 'num_1', 'left', '2', 'num_2', 'right']",0,0,0,Emo_Nback_20180527_v1-ABCD1234,1.0.0.1180,Verdana,1,Right,59.9883864952,ABCD1234,"['2', 'num_2', 'right']",1,Professional,2.0.10.356,2.0.10.356,06/25/2018,21:41:31,Stimuli/,2.0.10.252,0,1,0,160,"['5', '7', '^', 'num_5', 'num_7', '=']",3,2-Back,,,,,,,,,,,,,,,,500.0,513377.0,513376.0,512877.0,512877.0,,,,,,0.0,Match,2000.0,512877.0,512877.0,510882.0,,0,0.0,510882.0,NeutFace,AM210_NC.bmp,target
Emo_Nback_20180527,1,MRI,"['1', 'num_1', 'left', '2', 'num_2', 'right']",0,0,0,Emo_Nback_20180527_v1-ABCD1234,1.0.0.1180,Verdana,1,Right,59.9883864952,ABCD1234,"['2', 'num_2', 'right']",1,Professional,2.0.10.356,2.0.10.356,06/25/2018,21:41:31,Stimuli/,2.0.10.252,0,1,0,160,"['5', '7', '^', 'num_5', 'num_7', '=']",3,2-Back,,,,,,,,,,,,,,,,500.0,515877.0,515877.0,515378.0,515378.0,,,,,,0.0,Match,2000.0,515378.0,515378.0,513382.0,,0,0.0,513382.0,NeutFace,WF02_NC.bmp,target
Emo_Nback_20180527,1,MRI,"['1', 'num_1', 'left', '2', 'num_2', 'right']",0,0,0,Emo_Nback_20180527_v1-ABCD1234,1.0.0.1180,Verdana,1,Right,59.9883864952,ABCD1234,"['2', 'num_2', 'right']",1,Professional,2.0.10.356,2.0.10.356,06/25/2018,21:41:31,Stimuli/,2.0.10.252,0,1,0,160,"['5', '7', '^', 'num_5', 'num_7', '=']",None,Cue0Back,,,,,,500.0,516383.0,516383.0,515882.0,515882.0,2500.0,518867.0,518867.0,516384.0,516383.0,,,,,,,,,,,,,,,,,,0,,,Faces,BF10_FO.bmp,target
Emo_Nback_20180527,1,MRI,"['1', 'num_1', 'left', '2', 'num_2', 'right']",0,0,0,Emo_Nback_20180527_v1-ABCD1234,1.0.0.1180,Verdana,1,Right,59.9883864952,ABCD1234,"['2', 'num_2', 'right']",1,Professional,2.0.10.356,2.0.10.356,06/25/2018,21:41:31,Stimuli/,2.0.10.252,0,1,0,160,"['5', '7', '^', 'num_5', 'num_7', '=']",4,0-Back,,,,,,,,,,,,,,,,500.0,521378.0,521378.0,520867.0,520867.0,,,,,,0.0,Match,2000.0,520867.0,520867.0,518871.0,,0,0.0,518871.0,NegFace,BF10_FO.bmp,target
Emo_Nback_20180527,1,MRI,"['1', 'num_1', 'left', '2', 'num_2', 'right']",0,0,0,Emo_Nback_20180527_v1-ABCD1234,1.0.0.1180,Verdana,1,Right,59.9883864952,ABCD1234,"['2', 'num_2', 'right']",1,Professional,2.0.10.356,2.0.10.356,06/25/2018,21:41:31,Stimuli/,2.0.10.252,0,1,0,160,"['5', '7', '^', 'num_5', 'num_7', '=']",4,0-Back,,,,,,,,,,,,,,,,500.0,523878.0,523878.0,523378.0,523378.0,,,,,,0.0,No Match,2000.0,523378.0,523378.0,521386.0,,0,0.0,521386.0,NegFace,5F_FO.bmp,nonlure
Emo_Nback_20180527,1,MRI,"['1', 'num_1', 'left', '2', 'num_2', 'right']",0,0,0,Emo_Nback_20180527_v1-ABCD1234,1.0.0.1180,Verdana,1,Right,59.9883864952,ABCD1234,"['2', 'num_2', 'right']",1,Professional,2.0.10.356,2.0.10.356,06/25/2018,21:41:31,Stimuli/,2.0.10.252,0,1,0,160,"['5', '7', '^', 'num_5', 'num_7', '=']",4,0-Back,,,,,,,,,,,,,,,,500.0,526379.0,526379.0,525878.0,525878.0,,,,,,0.0,Match,2000.0,525878.0,525878.0,523884.0,,0,0.0,523883.0,NegFace,BF10_FO.bmp,target
Emo_Nback_20180527,1,MRI,"['1', 'num_1', 'left', '2', 'num_2', 'right']",0,0,0,Emo_Nback_20180527_v1-ABCD1234,1.0.0.1180,Verdana,1,Right,59.9883864952,ABCD1234,"['2', 'num_2', 'right']",1,Professional,2.0.10.356,2.0.10.356,06/25/2018,21:41:31,Stimuli/,2.0.10.252,0,1,0,160,"['5', '7', '^', 'num_5', 'num_7', '=']",4,0-Back,,,,,,,,,,,,,,,,500.0,528879.0,528879.0,528379.0,528379.0,,,,,,0.0,No Match,2000.0,528379.0,528379.0,526389.0,,0,0.0,526389.0,NegFace,33M_FO.bmp,nonlure
Emo_Nback_20180527,1,MRI,"['1', 'num_1', 'left', '2', 'num_2', 'right']",0,0,0,Emo_Nback_20180527_v1-ABCD1234,1.0.0.1180,Verdana,1,Right,59.9883864952,ABCD1234,"['2', 'num_2', 'right']",1,Professional,2.0.10.356,2.0.10.356,06/25/2018,21:41:31,Stimuli/,2.0.10.252,0,1,0,160,"['5', '7', '^', 'num_5', 'num_7', '=']",4,0-Back,,,,,,,,,,,,,,,,500.0,531379.0,531379.0,530880.0,530880.0,,,,,,0.0,No Match,2000.0,530880.0,530880.0,528884.0,,0,0.0,528884.0,NegFace,43M_FO.bmp,nonlure
Emo_Nback_20180527,1,MRI,"['1', 'num_1', 'left', '2', 'num_2', 'right']",0,0,0,Emo_Nback_20180527_v1-ABCD1234,1.0.0.1180,Verdana,1,Right,59.9883864952,ABCD1234,"['2', 'num_2', 'right']",1,Professional,2.0.10.356,2.0.10.356,06/25/2018,21:41:31,Stimuli/,2.0.10.252,0,1,0,160,"['5', '7', '^', 'num_5', 'num_7', '=']",4,0-Back,,,,,,,,,,,,,,,,500.0,533880.0,533880.0,533380.0,533380.0,,,,,,0.0,No Match,2000.0,533380.0,533380.0,531385.0,,0,0.0,531384.0,NegFace,43M_FO.bmp,lure
Emo_Nback_20180527,1,MRI,"['1', 'num_1', 'left', '2', 'num_2', 'right']",0,0,0,Emo_Nback_20180527_v1-ABCD1234,1.0.0.1180,Verdana,1,Right,59.9883864952,ABCD1234,"['2', 'num_2', 'right']",1,Professional,2.0.10.356,2.0.10.356,06/25/2018,21:41:31,Stimuli/,2.0.10.252,0,1,0,160,"['5', '7', '^', 'num_5', 'num_7', '=']",4,0-Back,,,,,,,,,,,,,,,,500.0,536379.0,536379.0,535880.0,535880.0,,,,,,0.0,No Match,2000.0,535880.0,535880.0,533885.0,,0,0.0,533885.0,NegFace,WF034_FO.bmp,nonlure
Emo_Nback_20180527,1,MRI,"['1', 'num_1', 'left', '2', 'num_2', 'right']",0,0,0,Emo_Nback_20180527_v1-ABCD1234,1.0.0.1180,Verdana,1,Right,59.9883864952,ABCD1234,"['2', 'num_2', 'right']",1,Professional,2.0.10.356,2.0.10.356,06/25/2018,21:41:31,Stimuli/,2.0.10.252,0,1,0,160,"['5', '7', '^', 'num_5', 'num_7', '=']",4,0-Back,,,,,,,,,,,,,,,,500.0,538880.0,538880.0,538380.0,538380.0,,,,,,0.0,No Match,2000.0,538380.0,538380.0,536385.0,,0,0.0,536384.0,NegFace,WF034_FO.bmp,lure
Emo_Nback_20180527,1,MRI,"['1', 'num_1', 'left', '2', 'num_2', 'right']",0,0,0,Emo_Nback_20180527_v1-ABCD1234,1.0.0.1180,Verdana,1,Right,59.9883864952,ABCD1234,"['2', 'num_2', 'right']",1,Professional,2.0.10.356,2.0.10.356,06/25/2018,21:41:31,Stimuli/,2.0.10.252,0,1,0,160,"['5', '7', '^', 'num_5', 'num_7', '=']",4,0-Back,,,,,,,,,,,,,,,,500.0,541380.0,541380.0,540880.0,540880.0,,,,,,0.0,No Match,2000.0,540880.0,540880.0,538887.0,,0,0.0,538887.0,NegFace,BM05_FO.bmp,nonlure
Emo_Nback_20180527,1,MRI,"['1', 'num_1', 'left', '2', 'num_2', 'right']",0,0,0,Emo_Nback_20180527_v1-ABCD1234,1.0.0.1180,Verdana,1,Right,59.9883864952,ABCD1234,"['2', 'num_2', 'right']",1,Professional,2.0.10.356,2.0.10.356,06/25/2018,21:41:31,Stimuli/,2.0.10.252,0,1,0,160,"['5', '7', '^', 'num_5', 'num_7', '=']",4,0-Back,,,,,,,,,,,,,,,,500.0,543880.0,543880.0,543382.0,543382.0,,,,,,0.0,No Match,2000.0,543382.0,543381.0,541384.0,,0,0.0,541384.0,NegFace,BM05_FO.bmp,lure
Emo_Nback_20180527,1,MRI,"['1', 'num_1', 'left', '2', 'num_2', 'right']",0,0,0,Emo_Nback_20180527_v1-ABCD1234,1.0.0.1180,Verdana,1,Right,59.9883864952,ABCD1234,"['2', 'num_2', 'right']",1,Professional,2.0.10.356,2.0.10.356,06/25/2018,21:41:31,Stimuli/,2.0.10.252,0,1,0,160,"['5', '7', '^', 'num_5', 'num_7', '=']",None,Fix15secPROC,,,,,,,,,,,,,,,,,,,,,15000.0,558884.0,558884.0,543882.0,543882.0,,,,,,,,0,,,None,None,None
Emo_Nback_20180527,1,MRI,"['1', 'num_1', 'left', '2', 'num_2', 'right']",0,0,0,Emo_Nback_20180527_v1-ABCD1234,1.0.0.1180,Verdana,1,Right,59.9883864952,ABCD1234,"['2', 'num_2', 'right']",1,Professional,2.0.10.356,2.0.10.356,06/25/2018,21:41:31,Stimuli/,2.0.10.252,0,1,0,160,"['5', '7', '^', 'num_5', 'num_7', '=']",None,Cue2Back,2500.0,561868.0,561868.0,559368.0,559368.0,500.0,559368.0,559367.0,558890.0,558890.0,,,,,,,,,,,,,,,,,,,,,,,0,,,Faces,None,None
Emo_Nback_20180527,1,MRI,"['1', 'num_1', 'left', '2', 'num_2', 'right']",0,0,0,Emo_Nback_20180527_v1-ABCD1234,1.0.0.1180,Verdana,1,Right,59.9883864952,ABCD1234,"['2', 'num_2', 'right']",1,Professional,2.0.10.356,2.0.10.356,06/25/2018,21:41:31,Stimuli/,2.0.10.252,0,1,0,160,"['5', '7', '^', 'num_5', 'num_7', '=']",5,2-Back,,,,,,,,,,,,,,,,500.0,564367.0,564367.0,563884.0,563884.0,,,,,,0.0,No Match,2000.0,563884.0,563884.0,561873.0,,0,0.0,561872.0,PosFace,13F_HO.bmp,nonlure
Emo_Nback_20180527,1,MRI,"['1', 'num_1', 'left', '2', 'num_2', 'right']",0,0,0,Emo_Nback_20180527_v1-ABCD1234,1.0.0.1180,Verdana,1,Right,59.9883864952,ABCD1234,"['2', 'num_2', 'right']",1,Professional,2.0.10.356,2.0.10.356,06/25/2018,21:41:31,Stimuli/,2.0.10.252,0,1,0,160,"['5', '7', '^', 'num_5', 'num_7', '=']",5,2-Back,,,,,,,,,,,,,,,,500.0,566870.0,566870.0,566369.0,566369.0,,,,,,0.0,No Match,2000.0,566369.0,566369.0,564371.0,,0,0.0,564371.0,PosFace,29M_HO.bmp,nonlure
Emo_Nback_20180527,1,MRI,"['1', 'num_1', 'left', '2', 'num_2', 'right']",0,0,0,Emo_Nback_20180527_v1-ABCD1234,1.0.0.1180,Verdana,1,Right,59.9883864952,ABCD1234,"['2', 'num_2', 'right']",1,Professional,2.0.10.356,2.0.10.356,06/25/2018,21:41:31,Stimuli/,2.0.10.252,0,1,0,160,"['5', '7', '^', 'num_5', 'num_7', '=']",5,2-Back,,,,,,,,,,,,,,,,500.0,569375.0,569375.0,568873.0,568873.0,,,,,,0.0,Match,2000.0,568873.0,568872.0,566875.0,,0,0.0,566874.0,PosFace,13F_HO.bmp,target
Emo_Nback_20180527,1,MRI,"['1', 'num_1', 'left', '2', 'num_2', 'right']",0,0,0,Emo_Nback_20180527_v1-ABCD1234,1.0.0.1180,Verdana,1,Right,59.9883864952,ABCD1234,"['2', 'num_2', 'right']",1,Professional,2.0.10.356,2.0.10.356,06/25/2018,21:41:31,Stimuli/,2.0.10.252,0,1,0,160,"['5', '7', '^', 'num_5', 'num_7', '=']",5,2-Back,,,,,,,,,,,,,,,,500.0,571872.0,571872.0,571372.0,571372.0,,,,,,0.0,Match,2000.0,571372.0,571372.0,569379.0,,0,0.0,569379.0,PosFace,29M_HO.bmp,target
Emo_Nback_20180527,1,MRI,"['1', 'num_1', 'left', '2', 'num_2', 'right']",0,0,0,Emo_Nback_20180527_v1-ABCD1234,1.0.0.1180,Verdana,1,Right,59.9883864952,ABCD1234,"['2', 'num_2', 'right']",1,Professional,2.0.10.356,2.0.10.356,06/25/2018,21:41:31,Stimuli/,2.0.10.252,0,1,0,160,"['5', '7', '^', 'num_5', 'num_7', '=']",5,2-Back,,,,,,,,,,,,,,,,500.0,574373.0,574373.0,573880.0,573880.0,,,,,,0.0,No Match,2000.0,573880.0,573880.0,571876.0,,0,0.0,571876.0,PosFace,HF02_HO.bmp,nonlure
Emo_Nback_20180527,1,MRI,"['1', 'num_1', 'left', '2', 'num_2', 'right']",0,0,0,Emo_Nback_20180527_v1-ABCD1234,1.0.0.1180,Verdana,1,Right,59.9883864952,ABCD1234,"['2', 'num_2', 'right']",1,Professional,2.0.10.356,2.0.10.356,06/25/2018,21:41:31,Stimuli/,2.0.10.252,0,1,0,160,"['5', '7', '^', 'num_5', 'num_7', '=']",5,2-Back,,,,,,,,,,,,,,,,500.0,576874.0,576874.0,576379.0,576379.0,,,,,,0.0,No Match,2000.0,576379.0,576379.0,574376.0,,0,0.0,574376.0,PosFace,HF02_HO.bmp,lure
Emo_Nback_20180527,1,MRI,"['1', 'num_1', 'left', '2', 'num_2', 'right']",0,0,0,Emo_Nback_20180527_v1-ABCD1234,1.0.0.1180,Verdana,1,Right,59.9883864952,ABCD1234,"['2', 'num_2', 'right']",1,Professional,2.0.10.356,2.0.10.356,06/25/2018,21:41:31,Stimuli/,2.0.10.252,0,1,0,160,"['5', '7', '^', 'num_5', 'num_7', '=']",5,2-Back,,,,,,,,,,,,,,,,500.0,579373.0,579373.0,578874.0,578874.0,,,,,,0.0,No Match,2000.0,578874.0,578874.0,576878.0,,0,0.0,576878.0,PosFace,WM01_HO.bmp,nonlure
Emo_Nback_20180527,1,MRI,"['1', 'num_1', 'left', '2', 'num_2', 'right']",0,0,0,Emo_Nback_20180527_v1-ABCD1234,1.0.0.1180,Verdana,1,Right,59.9883864952,ABCD1234,"['2', 'num_2', 'right']",1,Professional,2.0.10.356,2.0.10.356,06/25/2018,21:41:31,Stimuli/,2.0.10.252,0,1,0,160,"['5', '7', '^', 'num_5', 'num_7', '=']",5,2-Back,,,,,,,,,,,,,,,,500.0,581874.0,581874.0,581373.0,581373.0,,,,,,0.0,No Match,2000.0,581373.0,581373.0,579378.0,,0,0.0,579377.0,PosFace,WF03_HO.bmp,nonlure
Emo_Nback_20180527,1,MRI,"['1', 'num_1', 'left', '2', 'num_2', 'right']",0,0,0,Emo_Nback_20180527_v1-ABCD1234,1.0.0.1180,Verdana,1,Right,59.9883864952,ABCD1234,"['2', 'num_2', 'right']",1,Professional,2.0.10.356,2.0.10.356,06/25/2018,21:41:31,Stimuli/,2.0.10.252,0,1,0,160,"['5', '7', '^', 'num_5', 'num_7', '=']",5,2-Back,,,,,,,,,,,,,,,,500.0,584374.0,584374.0,583875.0,583875.0,,,,,,0.0,No Match,2000.0,583875.0,583875.0,581878.0,,0,0.0,581878.0,PosFace,BM026_HO.bmp,nonlure
Emo_Nback_20180527,1,MRI,"['1', 'num_1', 'left', '2', 'num_2', 'right']",0,0,0,Emo_Nback_20180527_v1-ABCD1234,1.0.0.1180,Verdana,1,Right,59.9883864952,ABCD1234,"['2', 'num_2', 'right']",1,Professional,2.0.10.356,2.0.10.356,06/25/2018,21:41:31,Stimuli/,2.0.10.252,0,1,0,160,"['5', '7', '^', 'num_5', 'num_7', '=']",5,2-Back,,,,,,,,,,,,,,,,500.0,586875.0,586875.0,586375.0,586375.0,,,,,,0.0,No Match,2000.0,586375.0,586375.0,584378.0,,0,0.0,584378.0,PosFace,BM026_HO.bmp,lure
Emo_Nback_20180527,1,MRI,"['1', 'num_1', 'left', '2', 'num_2', 'right']",0,0,0,Emo_Nback_20180527_v1-ABCD1234,1.0.0.1180,Verdana,1,Right,59.9883864952,ABCD1234,"['2', 'num_2', 'right']",1,Professional,2.0.10.356,2.0.10.356,06/25/2018,21:41:31,Stimuli/,2.0.10.252,0,1,0,160,"['5', '7', '^', 'num_5', 'num_7', '=']",6,Cue2Back,2500.0,589876.0,589876.0,587375.0,587375.0,500.0,587375.0,587375.0,586879.0,586879.0,,,,,,,,,,,,,,,,,,,,,,,0,,,None,None,None
Emo_Nback_20180527,1,MRI,"['1', 'num_1', 'left', '2', 'num_2', 'right']",0,0,0,Emo_Nback_20180527_v1-ABCD1234,1.0.0.1180,Verdana,1,Right,59.9883864952,ABCD1234,"['2', 'num_2', 'right']",1,Professional,2.0.10.356,2.0.10.356,06/25/2018,21:41:31,Stimuli/,2.0.10.252,0,1,0,160,"['5', '7', '^', 'num_5', 'num_7', '=']",6,2-Back,,,,,,,,,,,,,,,,500.0,592376.0,592376.0,591879.0,591879.0,,,,,,0.0,No Match,2000.0,591879.0,591879.0,589880.0,,0,0.0,589880.0,Places,PL_034_FOXISLAND.bmp,nonlure
Emo_Nback_20180527,1,MRI,"['1', 'num_1', 'left', '2', 'num_2', 'right']",0,0,0,Emo_Nback_20180527_v1-ABCD1234,1.0.0.1180,Verdana,1,Right,59.9883864952,ABCD1234,"['2', 'num_2', 'right']",1,Professional,2.0.10.356,2.0.10.356,06/25/2018,21:41:31,Stimuli/,2.0.10.252,0,1,0,160,"['5', '7', '^', 'num_5', 'num_7', '=']",6,2-Back,,,,,,,,,,,,,,,,500.0,594876.0,594876.0,594376.0,594376.0,,,,,,0.0,No Match,2000.0,594376.0,594375.0,592381.0,,0,0.0,592380.0,Places,PL_044_SCENE01.bmp,nonlure
Emo_Nback_20180527,1,MRI,"['1', 'num_1', 'left', '2', 'num_2', 'right']",0,0,0,Emo_Nback_20180527_v1-ABCD1234,1.0.0.1180,Verdana,1,Right,59.9883864952,ABCD1234,"['2', 'num_2', 'right']",1,Professional,2.0.10.356,2.0.10.356,06/25/2018,21:41:31,Stimuli/,2.0.10.252,0,1,0,160,"['5', '7', '^', 'num_5', 'num_7', '=']",6,2-Back,,,,,,,,,,,,,,,,500.0,597375.0,597375.0,596876.0,596876.0,,,,,,0.0,No Match,2000.0,596876.0,596876.0,594880.0,,0,0.0,594880.0,Places,PL_044_SCENE01.bmp,lure
Emo_Nback_20180527,1,MRI,"['1', 'num_1', 'left', '2', 'num_2', 'right']",0,0,0,Emo_Nback_20180527_v1-ABCD1234,1.0.0.1180,Verdana,1,Right,59.9883864952,ABCD1234,"['2', 'num_2', 'right']",1,Professional,2.0.10.356,2.0.10.356,06/25/2018,21:41:31,Stimuli/,2.0.10.252,0,1,0,160,"['5', '7', '^', 'num_5', 'num_7', '=']",6,2-Back,,,,,,,,,,,,,,,,500.0,599876.0,599876.0,599377.0,599377.0,,,,,,0.0,No Match,2000.0,599377.0,599377.0,597379.0,,0,0.0,597379.0,Places,PL_041_LEXINGTON17.bmp,nonlure
Emo_Nback_20180527,1,MRI,"['1', 'num_1', 'left', '2', 'num_2', 'right']",0,0,0,Emo_Nback_20180527_v1-ABCD1234,1.0.0.1180,Verdana,1,Right,59.9883864952,ABCD1234,"['2', 'num_2', 'right']",1,Professional,2.0.10.356,2.0.10.356,06/25/2018,21:41:31,Stimuli/,2.0.10.252,0,1,0,160,"['5', '7', '^', 'num_5', 'num_7', '=']",6,2-Back,,,,,,,,,,,,,,,,500.0,602376.0,602376.0,601876.0,601876.0,,,,,,0.0,No Match,2000.0,601876.0,601876.0,599882.0,,0,0.0,599881.0,Places,PL_043_LEXINGTON19.bmp,nonlure
Emo_Nback_20180527,1,MRI,"['1', 'num_1', 'left', '2', 'num_2', 'right']",0,0,0,Emo_Nback_20180527_v1-ABCD1234,1.0.0.1180,Verdana,1,Right,59.9883864952,ABCD1234,"['2', 'num_2', 'right']",1,Professional,2.0.10.356,2.0.10.356,06/25/2018,21:41:31,Stimuli/,2.0.10.252,0,1,0,160,"['5', '7', '^', 'num_5', 'num_7', '=']",6,2-Back,,,,,,,,,,,,,,,,500.0,604877.0,604877.0,604377.0,604377.0,,,,,,0.0,Match,2000.0,604377.0,604377.0,602381.0,,0,0.0,602381.0,Places,PL_041_LEXINGTON17.bmp,target
Emo_Nback_20180527,1,MRI,"['1', 'num_1', 'left', '2', 'num_2', 'right']",0,0,0,Emo_Nback_20180527_v1-ABCD1234,1.0.0.1180,Verdana,1,Right,59.9883864952,ABCD1234,"['2', 'num_2', 'right']",1,Professional,2.0.10.356,2.0.10.356,06/25/2018,21:41:31,Stimuli/,2.0.10.252,0,1,0,160,"['5', '7', '^', 'num_5', 'num_7', '=']",6,2-Back,,,,,,,,,,,,,,,,500.0,607378.0,607377.0,606878.0,606878.0,,,,,,0.0,Match,2000.0,606878.0,606878.0,604881.0,,0,0.0,604881.0,Places,PL_043_LEXINGTON19.bmp,target
Emo_Nback_20180527,1,MRI,"['1', 'num_1', 'left', '2', 'num_2', 'right']",0,0,0,Emo_Nback_20180527_v1-ABCD1234,1.0.0.1180,Verdana,1,Right,59.9883864952,ABCD1234,"['2', 'num_2', 'right']",1,Professional,2.0.10.356,2.0.10.356,06/25/2018,21:41:31,Stimuli/,2.0.10.252,0,1,0,160,"['5', '7', '^', 'num_5', 'num_7', '=']",6,2-Back,,,,,,,,,,,,,,,,500.0,609877.0,609877.0,609378.0,609378.0,,,,,,0.0,No Match,2000.0,609378.0,609377.0,607382.0,,0,0.0,607382.0,Places,PL_040_LEXINGTON16.bmp,nonlure
Emo_Nback_20180527,1,MRI,"['1', 'num_1', 'left', '2', 'num_2', 'right']",0,0,0,Emo_Nback_20180527_v1-ABCD1234,1.0.0.1180,Verdana,1,Right,59.9883864952,ABCD1234,"['2', 'num_2', 'right']",1,Professional,2.0.10.356,2.0.10.356,06/25/2018,21:41:31,Stimuli/,2.0.10.252,0,1,0,160,"['5', '7', '^', 'num_5', 'num_7', '=']",6,2-Back,,,,,,,,,,,,,,,,500.0,612378.0,612378.0,611878.0,611878.0,,,,,,0.0,No Match,2000.0,611878.0,611878.0,609882.0,,0,0.0,609881.0,Places,PL_040_LEXINGTON16.bmp,lure
Emo_Nback_20180527,1,MRI,"['1', 'num_1', 'left', '2', 'num_2', 'right']",0,0,0,Emo_Nback_20180527_v1-ABCD1234,1.0.0.1180,Verdana,1,Right,59.9883864952,ABCD1234,"['2', 'num_2', 'right']",1,Professional,2.0.10.356,2.0.10.356,06/25/2018,21:41:31,Stimuli/,2.0.10.252,0,1,0,160,"['5', '7', '^', 'num_5', 'num_7', '=']",6,2-Back,,,,,,,,,,,,,,,,500.0,614887.0,614887.0,614379.0,614379.0,,,,,,0.0,No Match,2000.0,614379.0,614379.0,612382.0,,0,0.0,612382.0,Places,o89.1.bmp,nonlure
Emo_Nback_20180527,1,MRI,"['1', 'num_1', 'left', '2', 'num_2', 'right']",0,0,0,Emo_Nback_20180527_v1-ABCD1234,1.0.0.1180,Verdana,1,Right,59.9883864952,ABCD1234,"['2', 'num_2', 'right']",1,Professional,2.0.10.356,2.0.10.356,06/25/2018,21:41:31,Stimuli/,2.0.10.252,0,1,0,160,"['5', '7', '^', 'num_5', 'num_7', '=']",None,Fix15secPROC,,,,,,,,,,,,,,,,,,,,,15000.0,629882.0,629882.0,614888.0,614888.0,,,,,,,,0,,,None,None,None
Emo_Nback_20180527,1,MRI,"['1', 'num_1', 'left', '2', 'num_2', 'right']",0,0,0,Emo_Nback_20180527_v1-ABCD1234,1.0.0.1180,Verdana,1,Right,59.9883864952,ABCD1234,"['2', 'num_2', 'right']",1,Professional,2.0.10.356,2.0.10.356,06/25/2018,21:41:31,Stimuli/,2.0.10.252,0,1,0,160,"['5', '7', '^', 'num_5', 'num_7', '=']",7,Cue0Back,,,,,,500.0,630380.0,630380.0,629886.0,629885.0,2500.0,632881.0,632881.0,630380.0,630380.0,,,,,,,,,,,,,,,,,,0,,,Faces,LF209_NC.bmp,target
Emo_Nback_20180527,1,MRI,"['1', 'num_1', 'left', '2', 'num_2', 'right']",0,0,0,Emo_Nback_20180527_v1-ABCD1234,1.0.0.1180,Verdana,1,Right,59.9883864952,ABCD1234,"['2', 'num_2', 'right']",1,Professional,2.0.10.356,2.0.10.356,06/25/2018,21:41:31,Stimuli/,2.0.10.252,0,1,0,160,"['5', '7', '^', 'num_5', 'num_7', '=']",7,0-Back,,,,,,,,,,,,,,,,500.0,635381.0,635381.0,634869.0,634869.0,,,,,,0.0,No Match,2000.0,634869.0,634869.0,632885.0,,0,0.0,632885.0,NeutFace,BM04_NC.bmp,nonlure
Emo_Nback_20180527,1,MRI,"['1', 'num_1', 'left', '2', 'num_2', 'right']",0,0,0,Emo_Nback_20180527_v1-ABCD1234,1.0.0.1180,Verdana,1,Right,59.9883864952,ABCD1234,"['2', 'num_2', 'right']",1,Professional,2.0.10.356,2.0.10.356,06/25/2018,21:41:31,Stimuli/,2.0.10.252,0,1,0,160,"['5', '7', '^', 'num_5', 'num_7', '=']",7,0-Back,,,,,,,,,,,,,,,,500.0,637882.0,637882.0,637381.0,637381.0,,,,,,0.0,No Match,2000.0,637381.0,637381.0,635385.0,,0,0.0,635385.0,NeutFace,AM04_NC.bmp,nonlure
Emo_Nback_20180527,1,MRI,"['1', 'num_1', 'left', '2', 'num_2', 'right']",0,0,0,Emo_Nback_20180527_v1-ABCD1234,1.0.0.1180,Verdana,1,Right,59.9883864952,ABCD1234,"['2', 'num_2', 'right']",1,Professional,2.0.10.356,2.0.10.356,06/25/2018,21:41:31,Stimuli/,2.0.10.252,0,1,0,160,"['5', '7', '^', 'num_5', 'num_7', '=']",7,0-Back,,,,,,,,,,,,,,,,500.0,640382.0,640382.0,639882.0,639882.0,,,,,,0.0,Match,2000.0,639882.0,639882.0,637886.0,,0,0.0,637886.0,NeutFace,LF209_NC.bmp,target
Emo_Nback_20180527,1,MRI,"['1', 'num_1', 'left', '2', 'num_2', 'right']",0,0,0,Emo_Nback_20180527_v1-ABCD1234,1.0.0.1180,Verdana,1,Right,59.9883864952,ABCD1234,"['2', 'num_2', 'right']",1,Professional,2.0.10.356,2.0.10.356,06/25/2018,21:41:31,Stimuli/,2.0.10.252,0,1,0,160,"['5', '7', '^', 'num_5', 'num_7', '=']",7,0-Back,,,,,,,,,,,,,,,,500.0,642883.0,642883.0,642368.0,642368.0,,,,,,0.0,No Match,2000.0,642368.0,642368.0,640386.0,,0,0.0,640386.0,NeutFace,BM04_NC.bmp,lure
Emo_Nback_20180527,1,MRI,"['1', 'num_1', 'left', '2', 'num_2', 'right']",0,0,0,Emo_Nback_20180527_v1-ABCD1234,1.0.0.1180,Verdana,1,Right,59.9883864952,ABCD1234,"['2', 'num_2', 'right']",1,Professional,2.0.10.356,2.0.10.356,06/25/2018,21:41:31,Stimuli/,2.0.10.252,0,1,0,160,"['5', '7', '^', 'num_5', 'num_7', '=']",7,0-Back,,,,,,,,,,,,,,,,500.0,645386.0,645386.0,644883.0,644883.0,,,,,,0.0,Match,2000.0,644883.0,644883.0,642887.0,,0,0.0,642887.0,NeutFace,LF209_NC.bmp,target
Emo_Nback_20180527,1,MRI,"['1', 'num_1', 'left', '2', 'num_2', 'right']",0,0,0,Emo_Nback_20180527_v1-ABCD1234,1.0.0.1180,Verdana,1,Right,59.9883864952,ABCD1234,"['2', 'num_2', 'right']",1,Professional,2.0.10.356,2.0.10.356,06/25/2018,21:41:31,Stimuli/,2.0.10.252,0,1,0,160,"['5', '7', '^', 'num_5', 'num_7', '=']",7,0-Back,,,,,,,,,,,,,,,,500.0,647883.0,647883.0,647367.0,647367.0,,,,,,0.0,No Match,2000.0,647367.0,647367.0,645390.0,,0,0.0,645390.0,NeutFace,AF235_NC.bmp,nonlure
Emo_Nback_20180527,1,MRI,"['1', 'num_1', 'left', '2', 'num_2', 'right']",0,0,0,Emo_Nback_20180527_v1-ABCD1234,1.0.0.1180,Verdana,1,Right,59.9883864952,ABCD1234,"['2', 'num_2', 'right']",1,Professional,2.0.10.356,2.0.10.356,06/25/2018,21:41:31,Stimuli/,2.0.10.252,0,1,0,160,"['5', '7', '^', 'num_5', 'num_7', '=']",7,0-Back,,,,,,,,,,,,,,,,500.0,650367.0,650367.0,649867.0,649867.0,,,,,,0.0,No Match,2000.0,649867.0,649867.0,647887.0,,0,0.0,647887.0,NeutFace,AM04_NC.bmp,lure
Emo_Nback_20180527,1,MRI,"['1', 'num_1', 'left', '2', 'num_2', 'right']",0,0,0,Emo_Nback_20180527_v1-ABCD1234,1.0.0.1180,Verdana,1,Right,59.9883864952,ABCD1234,"['2', 'num_2', 'right']",1,Professional,2.0.10.356,2.0.10.356,06/25/2018,21:41:31,Stimuli/,2.0.10.252,0,1,0,160,"['5', '7', '^', 'num_5', 'num_7', '=']",7,0-Back,,,,,,,,,,,,,,,,500.0,652867.0,652867.0,652367.0,652367.0,,,,,,0.0,No Match,2000.0,652367.0,652367.0,650371.0,,0,0.0,650371.0,NeutFace,WM036_NC.bmp,nonlure
Emo_Nback_20180527,1,MRI,"['1', 'num_1', 'left', '2', 'num_2', 'right']",0,0,0,Emo_Nback_20180527_v1-ABCD1234,1.0.0.1180,Verdana,1,Right,59.9883864952,ABCD1234,"['2', 'num_2', 'right']",1,Professional,2.0.10.356,2.0.10.356,06/25/2018,21:41:31,Stimuli/,2.0.10.252,0,1,0,160,"['5', '7', '^', 'num_5', 'num_7', '=']",7,0-Back,,,,,,,,,,,,,,,,500.0,655368.0,655368.0,654869.0,654869.0,,,,,,0.0,No Match,2000.0,654869.0,654869.0,652871.0,,0,0.0,652871.0,NeutFace,WM036_NC.bmp,lure
Emo_Nback_20180527,1,MRI,"['1', 'num_1', 'left', '2', 'num_2', 'right']",0,0,0,Emo_Nback_20180527_v1-ABCD1234,1.0.0.1180,Verdana,1,Right,59.9883864952,ABCD1234,"['2', 'num_2', 'right']",1,Professional,2.0.10.356,2.0.10.356,06/25/2018,21:41:31,Stimuli/,2.0.10.252,0,1,0,160,"['5', '7', '^', 'num_5', 'num_7', '=']",7,0-Back,,,,,,,,,,,,,,,,500.0,657867.0,657867.0,657369.0,657369.0,,,,,,0.0,No Match,2000.0,657369.0,657368.0,655372.0,,0,0.0,655372.0,NeutFace,BF201_NC.bmp,nonlure
Emo_Nback_20180527,1,MRI,"['1', 'num_1', 'left', '2', 'num_2', 'right']",0,0,0,Emo_Nback_20180527_v1-ABCD1234,1.0.0.1180,Verdana,1,Right,59.9883864952,ABCD1234,"['2', 'num_2', 'right']",1,Professional,2.0.10.356,2.0.10.356,06/25/2018,21:41:31,Stimuli/,2.0.10.252,0,1,0,160,"['5', '7', '^', 'num_5', 'num_7', '=']",8,Cue0Back,,,,,,500.0,658368.0,658368.0,657871.0,657871.0,2500.0,660868.0,660868.0,658368.0,658368.0,,,,,,,,,,,,,,,,,,0,,,Place,PL_047_SCENE04.bmp,target
Emo_Nback_20180527,1,MRI,"['1', 'num_1', 'left', '2', 'num_2', 'right']",0,0,0,Emo_Nback_20180527_v1-ABCD1234,1.0.0.1180,Verdana,1,Right,59.9883864952,ABCD1234,"['2', 'num_2', 'right']",1,Professional,2.0.10.356,2.0.10.356,06/25/2018,21:41:31,Stimuli/,2.0.10.252,0,1,0,160,"['5', '7', '^', 'num_5', 'num_7', '=']",8,0-Back,,,,,,,,,,,,,,,,500.0,663369.0,663369.0,662869.0,662869.0,,,,,,0.0,No Match,2000.0,662869.0,662869.0,660872.0,,0,0.0,660872.0,Place,PL_046_SCENE03.bmp,nonlure
Emo_Nback_20180527,1,MRI,"['1', 'num_1', 'left', '2', 'num_2', 'right']",0,0,0,Emo_Nback_20180527_v1-ABCD1234,1.0.0.1180,Verdana,1,Right,59.9883864952,ABCD1234,"['2', 'num_2', 'right']",1,Professional,2.0.10.356,2.0.10.356,06/25/2018,21:41:31,Stimuli/,2.0.10.252,0,1,0,160,"['5', '7', '^', 'num_5', 'num_7', '=']",8,0-Back,,,,,,,,,,,,,,,,500.0,665868.0,665868.0,665369.0,665369.0,,,,,,0.0,No Match,2000.0,665369.0,665368.0,663373.0,,0,0.0,663373.0,Place,PL_045_SCENE02.bmp,nonlure
Emo_Nback_20180527,1,MRI,"['1', 'num_1', 'left', '2', 'num_2', 'right']",0,0,0,Emo_Nback_20180527_v1-ABCD1234,1.0.0.1180,Verdana,1,Right,59.9883864952,ABCD1234,"['2', 'num_2', 'right']",1,Professional,2.0.10.356,2.0.10.356,06/25/2018,21:41:31,Stimuli/,2.0.10.252,0,1,0,160,"['5', '7', '^', 'num_5', 'num_7', '=']",8,0-Back,,,,,,,,,,,,,,,,500.0,668369.0,668369.0,667869.0,667869.0,,,,,,0.0,No Match,2000.0,667869.0,667869.0,665872.0,,0,0.0,665872.0,Place,PL_046_SCENE03.bmp,lure
Emo_Nback_20180527,1,MRI,"['1', 'num_1', 'left', '2', 'num_2', 'right']",0,0,0,Emo_Nback_20180527_v1-ABCD1234,1.0.0.1180,Verdana,1,Right,59.9883864952,ABCD1234,"['2', 'num_2', 'right']",1,Professional,2.0.10.356,2.0.10.356,06/25/2018,21:41:31,Stimuli/,2.0.10.252,0,1,0,160,"['5', '7', '^', 'num_5', 'num_7', '=']",8,0-Back,,,,,,,,,,,,,,,,500.0,670869.0,670869.0,670369.0,670369.0,,,,,,0.0,No Match,2000.0,670369.0,670369.0,668374.0,,0,0.0,668374.0,Place,PL_048_SCENE05.bmp,nonlure
Emo_Nback_20180527,1,MRI,"['1', 'num_1', 'left', '2', 'num_2', 'right']",0,0,0,Emo_Nback_20180527_v1-ABCD1234,1.0.0.1180,Verdana,1,Right,59.9883864952,ABCD1234,"['2', 'num_2', 'right']",1,Professional,2.0.10.356,2.0.10.356,06/25/2018,21:41:31,Stimuli/,2.0.10.252,0,1,0,160,"['5', '7', '^', 'num_5', 'num_7', '=']",8,0-Back,,,,,,,,,,,,,,,,500.0,673370.0,673370.0,672869.0,672869.0,,,,,,0.0,No Match,2000.0,672869.0,672869.0,670873.0,,0,0.0,670873.0,Place,PL_045_SCENE02.bmp,lure
Emo_Nback_20180527,1,MRI,"['1', 'num_1', 'left', '2', 'num_2', 'right']",0,0,0,Emo_Nback_20180527_v1-ABCD1234,1.0.0.1180,Verdana,1,Right,59.9883864952,ABCD1234,"['2', 'num_2', 'right']",1,Professional,2.0.10.356,2.0.10.356,06/25/2018,21:41:31,Stimuli/,2.0.10.252,0,1,0,160,"['5', '7', '^', 'num_5', 'num_7', '=']",8,0-Back,,,,,,,,,,,,,,,,500.0,675870.0,675870.0,675370.0,675370.0,,,,,,0.0,Match,2000.0,675370.0,675370.0,673374.0,,0,0.0,673374.0,Place,PL_047_SCENE04.bmp,target
Emo_Nback_20180527,1,MRI,"['1', 'num_1', 'left', '2', 'num_2', 'right']",0,0,0,Emo_Nback_20180527_v1-ABCD1234,1.0.0.1180,Verdana,1,Right,59.9883864952,ABCD1234,"['2', 'num_2', 'right']",1,Professional,2.0.10.356,2.0.10.356,06/25/2018,21:41:31,Stimuli/,2.0.10.252,0,1,0,160,"['5', '7', '^', 'num_5', 'num_7', '=']",8,0-Back,,,,,,,,,,,,,,,,500.0,678370.0,678370.0,677870.0,677870.0,,,,,,0.0,Match,2000.0,677870.0,677870.0,675874.0,,0,0.0,675874.0,Place,PL_047_SCENE04.bmp,target
Emo_Nback_20180527,1,MRI,"['1', 'num_1', 'left', '2', 'num_2', 'right']",0,0,0,Emo_Nback_20180527_v1-ABCD1234,1.0.0.1180,Verdana,1,Right,59.9883864952,ABCD1234,"['2', 'num_2', 'right']",1,Professional,2.0.10.356,2.0.10.356,06/25/2018,21:41:31,Stimuli/,2.0.10.252,0,1,0,160,"['5', '7', '^', 'num_5', 'num_7', '=']",8,0-Back,,,,,,,,,,,,,,,,500.0,680871.0,680871.0,680371.0,680370.0,,,,,,0.0,No Match,2000.0,680370.0,680370.0,678374.0,,0,0.0,678374.0,Place,PL_049_SCENE06.bmp,nonlure
Emo_Nback_20180527,1,MRI,"['1', 'num_1', 'left', '2', 'num_2', 'right']",0,0,0,Emo_Nback_20180527_v1-ABCD1234,1.0.0.1180,Verdana,1,Right,59.9883864952,ABCD1234,"['2', 'num_2', 'right']",1,Professional,2.0.10.356,2.0.10.356,06/25/2018,21:41:31,Stimuli/,2.0.10.252,0,1,0,160,"['5', '7', '^', 'num_5', 'num_7', '=']",8,0-Back,,,,,,,,,,,,,,,,500.0,683371.0,683371.0,682871.0,682871.0,,,,,,0.0,No Match,2000.0,682871.0,682871.0,680875.0,,0,0.0,680875.0,Place,PL_050_SCENE07.bmp,nonlure
Emo_Nback_20180527,1,MRI,"['1', 'num_1', 'left', '2', 'num_2', 'right']",0,0,0,Emo_Nback_20180527_v1-ABCD1234,1.0.0.1180,Verdana,1,Right,59.9883864952,ABCD1234,"['2', 'num_2', 'right']",1,Professional,2.0.10.356,2.0.10.356,06/25/2018,21:41:31,Stimuli/,2.0.10.252,0,1,0,160,"['5', '7', '^', 'num_5', 'num_7', '=']",8,0-Back,,,,,,,,,,,,,,,,500.0,685871.0,685871.0,685371.0,685371.0,,,,,,0.0,No Match,2000.0,685371.0,685371.0,683375.0,,0,0.0,683375.0,Place,PL_048_SCENE05.bmp,lure
Emo_Nback_20180527,1,MRI,"['1', 'num_1', 'left', '2', 'num_2', 'right']",0,0,0,Emo_Nback_20180527_v1-ABCD1234,1.0.0.1180,Verdana,1,Right,59.9883864952,ABCD1234,"['2', 'num_2', 'right']",1,Professional,2.0.10.356,2.0.10.356,06/25/2018,21:41:31,Stimuli/,2.0.10.252,0,1,0,160,"['5', '7', '^', 'num_5', 'num_7', '=']",None,Fix15secPROC,,,,,,,,,,,,,,,,,,,,,15000.0,700874.0,700874.0,685873.0,685873.0,,,,,,,,0,,,None,None,None
