ExperimentName,Subject,Session,Allowed,Clock.Information,ConsecNonResp[Session],ConsecRTLess200[Session],DataFile.Basename,ExperimentVersion,FontStyle,Group,Handedness,Main.RefreshRate,NARGUID,Nontarget,RunNumber,RuntimeCapabilities,RuntimeVersion,RuntimeVersionExpected,SessionDate,SessionTime,StimuliDir,StudioVersion,SUBID,Target,TotalRespGreater200[Session],TrialsPerRun[Session],triggercode,Block,BlockType,Cue2Back.Duration,Cue2Back.FinishTime,Cue2Back.OffsetTime,Cue2Back.OnsetTime,Cue2Back.StartTime,CueFix.Duration,CueFix.FinishTime,CueFix.OffsetTime,CueFix.OnsetTime,CueFix.StartTime,CueTarget.Duration,CueTarget.FinishTime,CueTarget.OffsetTime,CueTarget.OnsetTime,CueTarget.StartTime,Fix.Duration,Fix.FinishTime,Fix.OffsetTime,Fix.OnsetTime,Fix.StartTime,Fix15sec.Duration,Fix15sec.FinishTime,Fix15sec.OffsetTime,Fix15sec.OnsetTime,Fix15sec.StartTime,Stim.ACC,Stim.CRESP,Stim.Duration,Stim.FinishTime,Stim.OffsetTime,Stim.OnsetTime,Stim.RESP,Stim.RT,Stim.RTTime,Stim.StartTime,StimType,Stimulus,TargetType
Emo_Nback_20180527,1,Behavioral,"['1', 'num_1', 'left', '2', 'num_2', 'right']",0,0,0,Emo_Nback_20180527_v1-ABCD1234,1.0.0.1180,Verdana,1,Right,60.0506542241,ABCD1234,"['2', 'num_2', 'right']",1,Professional,2.0.10.356,2.0.10.356,06/25/2018,17:32:25,Stimuli/,2.0.10.252,0,1,0,160,['space'],1.0,Cue2Back,2500.0,33072.0,33072.0,30572.0,30572.0,500.0,30572.0,30572.0,30070.0,30070.0,,,,,,,,,,,,,,,,,,,,,,,0,,,Faces,,
Emo_Nback_20180527,1,Behavioral,"['1', 'num_1', 'left', '2', 'num_2', 'right']",0,0,0,Emo_Nback_20180527_v1-ABCD1234,1.0.0.1180,Verdana,1,Right,60.0506542241,ABCD1234,"['2', 'num_2', 'right']",1,Professional,2.0.10.356,2.0.10.356,06/25/2018,17:32:25,Stimuli/,2.0.10.252,0,1,0,160,['space'],1.0,2-Back,,,,,,,,,,,,,,,,500.0,35572.0,35572.0,35073.0,35073.0,,,,,,1.0,No Match,2000.0,35073.0,35072.0,33082.0,2.0,1092,34175.0,33082.0,PosFace,23M_HO.bmp,nonlure
Emo_Nback_20180527,1,Behavioral,"['1', 'num_1', 'left', '2', 'num_2', 'right']",0,0,0,Emo_Nback_20180527_v1-ABCD1234,1.0.0.1180,Verdana,1,Right,60.0506542241,ABCD1234,"['2', 'num_2', 'right']",1,Professional,2.0.10.356,2.0.10.356,06/25/2018,17:32:25,Stimuli/,2.0.10.252,0,1,0,160,['space'],1.0,2-Back,,,,,,,,,,,,,,,,500.0,38072.0,38072.0,37573.0,37573.0,,,,,,1.0,No Match,2000.0,37573.0,37573.0,35582.0,2.0,693,36275.0,35581.0,PosFace,12F_HO.bmp,nonlure
Emo_Nback_20180527,1,Behavioral,"['1', 'num_1', 'left', '2', 'num_2', 'right']",0,0,0,Emo_Nback_20180527_v1-ABCD1234,1.0.0.1180,Verdana,1,Right,60.0506542241,ABCD1234,"['2', 'num_2', 'right']",1,Professional,2.0.10.356,2.0.10.356,06/25/2018,17:32:25,Stimuli/,2.0.10.252,0,1,0,160,['space'],1.0,2-Back,,,,,,,,,,,,,,,,500.0,40573.0,40573.0,40073.0,40073.0,,,,,,1.0,No Match,2000.0,40073.0,40073.0,38081.0,2.0,526,38609.0,38081.0,PosFace,AF02_HO.bmp,nonlure
Emo_Nback_20180527,1,Behavioral,"['1', 'num_1', 'left', '2', 'num_2', 'right']",0,0,0,Emo_Nback_20180527_v1-ABCD1234,1.0.0.1180,Verdana,1,Right,60.0506542241,ABCD1234,"['2', 'num_2', 'right']",1,Professional,2.0.10.356,2.0.10.356,06/25/2018,17:32:25,Stimuli/,2.0.10.252,0,1,0,160,['space'],1.0,2-Back,,,,,,,,,,,,,,,,500.0,43073.0,43073.0,42573.0,42573.0,,,,,,1.0,Match,2000.0,42573.0,42573.0,40579.0,1.0,729,41309.0,40579.0,PosFace,12F_HO.bmp,target
Emo_Nback_20180527,1,Behavioral,"['1', 'num_1', 'left', '2', 'num_2', 'right']",0,0,0,Emo_Nback_20180527_v1-ABCD1234,1.0.0.1180,Verdana,1,Right,60.0506542241,ABCD1234,"['2', 'num_2', 'right']",1,Professional,2.0.10.356,2.0.10.356,06/25/2018,17:32:25,Stimuli/,2.0.10.252,0,1,0,160,['space'],1.0,2-Back,,,,,,,,,,,,,,,,500.0,45573.0,45573.0,45074.0,45074.0,,,,,,1.0,No Match,2000.0,45074.0,45074.0,43083.0,2.0,658,43742.0,43082.0,PosFace,WM011_HO.bmp,nonlure
Emo_Nback_20180527,1,Behavioral,"['1', 'num_1', 'left', '2', 'num_2', 'right']",0,0,0,Emo_Nback_20180527_v1-ABCD1234,1.0.0.1180,Verdana,1,Right,60.0506542241,ABCD1234,"['2', 'num_2', 'right']",1,Professional,2.0.10.356,2.0.10.356,06/25/2018,17:32:25,Stimuli/,2.0.10.252,0,1,0,160,['space'],1.0,2-Back,,,,,,,,,,,,,,,,500.0,48074.0,48074.0,47574.0,47574.0,,,,,,1.0,No Match,2000.0,47574.0,47574.0,45583.0,2.0,660,46243.0,45583.0,PosFace,HM04_HO.bmp,nonlure
Emo_Nback_20180527,1,Behavioral,"['1', 'num_1', 'left', '2', 'num_2', 'right']",0,0,0,Emo_Nback_20180527_v1-ABCD1234,1.0.0.1180,Verdana,1,Right,60.0506542241,ABCD1234,"['2', 'num_2', 'right']",1,Professional,2.0.10.356,2.0.10.356,06/25/2018,17:32:25,Stimuli/,2.0.10.252,0,1,0,160,['space'],1.0,2-Back,,,,,,,,,,,,,,,,500.0,50574.0,50574.0,50074.0,50074.0,,,,,,1.0,No Match,2000.0,50074.0,50074.0,48080.0,2.0,795,48876.0,48080.0,PosFace,AF02_HO.bmp,lure
Emo_Nback_20180527,1,Behavioral,"['1', 'num_1', 'left', '2', 'num_2', 'right']",0,0,0,Emo_Nback_20180527_v1-ABCD1234,1.0.0.1180,Verdana,1,Right,60.0506542241,ABCD1234,"['2', 'num_2', 'right']",1,Professional,2.0.10.356,2.0.10.356,06/25/2018,17:32:25,Stimuli/,2.0.10.252,0,1,0,160,['space'],1.0,2-Back,,,,,,,,,,,,,,,,500.0,53075.0,53075.0,52575.0,52575.0,,,,,,1.0,No Match,2000.0,52575.0,52575.0,50583.0,2.0,809,51394.0,50583.0,PosFace,BF037_HO.bmp,nonlure
Emo_Nback_20180527,1,Behavioral,"['1', 'num_1', 'left', '2', 'num_2', 'right']",0,0,0,Emo_Nback_20180527_v1-ABCD1234,1.0.0.1180,Verdana,1,Right,60.0506542241,ABCD1234,"['2', 'num_2', 'right']",1,Professional,2.0.10.356,2.0.10.356,06/25/2018,17:32:25,Stimuli/,2.0.10.252,0,1,0,160,['space'],1.0,2-Back,,,,,,,,,,,,,,,,500.0,55576.0,55575.0,55075.0,55075.0,,,,,,0.0,No Match,2000.0,55075.0,55075.0,53081.0,1.0,1094,54176.0,53081.0,PosFace,WM011_HO.bmp,lure
Emo_Nback_20180527,1,Behavioral,"['1', 'num_1', 'left', '2', 'num_2', 'right']",0,0,0,Emo_Nback_20180527_v1-ABCD1234,1.0.0.1180,Verdana,1,Right,60.0506542241,ABCD1234,"['2', 'num_2', 'right']",1,Professional,2.0.10.356,2.0.10.356,06/25/2018,17:32:25,Stimuli/,2.0.10.252,0,1,0,160,['space'],1.0,2-Back,,,,,,,,,,,,,,,,500.0,58075.0,58075.0,57576.0,57576.0,,,,,,1.0,Match,2000.0,57576.0,57576.0,55581.0,1.0,879,56462.0,55581.0,PosFace,BF037_HO.bmp,target
Emo_Nback_20180527,1,Behavioral,"['1', 'num_1', 'left', '2', 'num_2', 'right']",0,0,0,Emo_Nback_20180527_v1-ABCD1234,1.0.0.1180,Verdana,1,Right,60.0506542241,ABCD1234,"['2', 'num_2', 'right']",1,Professional,2.0.10.356,2.0.10.356,06/25/2018,17:32:25,Stimuli/,2.0.10.252,0,1,0,160,['space'],2.0,Cue0Back,,,,,,500.0,58576.0,58575.0,58083.0,58083.0,2500.0,61076.0,61076.0,58576.0,58576.0,,,,,,,,,,,,,,,,,,0,,,Faces,AF218_NC.bmp,target
Emo_Nback_20180527,1,Behavioral,"['1', 'num_1', 'left', '2', 'num_2', 'right']",0,0,0,Emo_Nback_20180527_v1-ABCD1234,1.0.0.1180,Verdana,1,Right,60.0506542241,ABCD1234,"['2', 'num_2', 'right']",1,Professional,2.0.10.356,2.0.10.356,06/25/2018,17:32:25,Stimuli/,2.0.10.252,0,1,0,160,['space'],2.0,0-Back,,,,,,,,,,,,,,,,500.0,63577.0,63577.0,63076.0,63076.0,,,,,,1.0,No Match,2000.0,63076.0,63075.0,61085.0,2.0,909,61995.0,61085.0,NeutFace,LF206_NC.bmp,nonlure
Emo_Nback_20180527,1,Behavioral,"['1', 'num_1', 'left', '2', 'num_2', 'right']",0,0,0,Emo_Nback_20180527_v1-ABCD1234,1.0.0.1180,Verdana,1,Right,60.0506542241,ABCD1234,"['2', 'num_2', 'right']",1,Professional,2.0.10.356,2.0.10.356,06/25/2018,17:32:25,Stimuli/,2.0.10.252,0,1,0,160,['space'],2.0,0-Back,,,,,,,,,,,,,,,,500.0,66076.0,66076.0,65576.0,65576.0,,,,,,1.0,Match,2000.0,65576.0,65576.0,63583.0,1.0,895,64478.0,63582.0,NeutFace,AF218_NC.bmp,target
Emo_Nback_20180527,1,Behavioral,"['1', 'num_1', 'left', '2', 'num_2', 'right']",0,0,0,Emo_Nback_20180527_v1-ABCD1234,1.0.0.1180,Verdana,1,Right,60.0506542241,ABCD1234,"['2', 'num_2', 'right']",1,Professional,2.0.10.356,2.0.10.356,06/25/2018,17:32:25,Stimuli/,2.0.10.252,0,1,0,160,['space'],2.0,0-Back,,,,,,,,,,,,,,,,500.0,68577.0,68577.0,68077.0,68077.0,,,,,,1.0,No Match,2000.0,68077.0,68077.0,66085.0,2.0,427,66513.0,66085.0,NeutFace,42M_NC.bmp,nonlure
Emo_Nback_20180527,1,Behavioral,"['1', 'num_1', 'left', '2', 'num_2', 'right']",0,0,0,Emo_Nback_20180527_v1-ABCD1234,1.0.0.1180,Verdana,1,Right,60.0506542241,ABCD1234,"['2', 'num_2', 'right']",1,Professional,2.0.10.356,2.0.10.356,06/25/2018,17:32:25,Stimuli/,2.0.10.252,0,1,0,160,['space'],2.0,0-Back,,,,,,,,,,,,,,,,500.0,71077.0,71077.0,70577.0,70577.0,,,,,,1.0,No Match,2000.0,70577.0,70577.0,68584.0,2.0,1078,69664.0,68584.0,NeutFace,BM09_NC.bmp,nonlure
Emo_Nback_20180527,1,Behavioral,"['1', 'num_1', 'left', '2', 'num_2', 'right']",0,0,0,Emo_Nback_20180527_v1-ABCD1234,1.0.0.1180,Verdana,1,Right,60.0506542241,ABCD1234,"['2', 'num_2', 'right']",1,Professional,2.0.10.356,2.0.10.356,06/25/2018,17:32:25,Stimuli/,2.0.10.252,0,1,0,160,['space'],2.0,0-Back,,,,,,,,,,,,,,,,500.0,73578.0,73578.0,73077.0,73077.0,,,,,,0.0,No Match,2000.0,73077.0,73077.0,71082.0,1.0,1097,72180.0,71082.0,NeutFace,BM09_NC.bmp,lure
Emo_Nback_20180527,1,Behavioral,"['1', 'num_1', 'left', '2', 'num_2', 'right']",0,0,0,Emo_Nback_20180527_v1-ABCD1234,1.0.0.1180,Verdana,1,Right,60.0506542241,ABCD1234,"['2', 'num_2', 'right']",1,Professional,2.0.10.356,2.0.10.356,06/25/2018,17:32:25,Stimuli/,2.0.10.252,0,1,0,160,['space'],2.0,0-Back,,,,,,,,,,,,,,,,500.0,76078.0,76078.0,75578.0,75578.0,,,,,,1.0,Match,2000.0,75578.0,75578.0,73584.0,1.0,746,74331.0,73583.0,NeutFace,AF218_NC.bmp,target
Emo_Nback_20180527,1,Behavioral,"['1', 'num_1', 'left', '2', 'num_2', 'right']",0,0,0,Emo_Nback_20180527_v1-ABCD1234,1.0.0.1180,Verdana,1,Right,60.0506542241,ABCD1234,"['2', 'num_2', 'right']",1,Professional,2.0.10.356,2.0.10.356,06/25/2018,17:32:25,Stimuli/,2.0.10.252,0,1,0,160,['space'],2.0,0-Back,,,,,,,,,,,,,,,,500.0,78578.0,78578.0,78078.0,78078.0,,,,,,1.0,No Match,2000.0,78078.0,78078.0,76088.0,2.0,1259,77347.0,76087.0,NeutFace,7F_NC.bmp,nonlure
Emo_Nback_20180527,1,Behavioral,"['1', 'num_1', 'left', '2', 'num_2', 'right']",0,0,0,Emo_Nback_20180527_v1-ABCD1234,1.0.0.1180,Verdana,1,Right,60.0506542241,ABCD1234,"['2', 'num_2', 'right']",1,Professional,2.0.10.356,2.0.10.356,06/25/2018,17:32:25,Stimuli/,2.0.10.252,0,1,0,160,['space'],2.0,0-Back,,,,,,,,,,,,,,,,500.0,81078.0,81078.0,80578.0,80578.0,,,,,,1.0,No Match,2000.0,80578.0,80578.0,78584.0,2.0,863,79448.0,78584.0,NeutFace,7F_NC.bmp,lure
Emo_Nback_20180527,1,Behavioral,"['1', 'num_1', 'left', '2', 'num_2', 'right']",0,0,0,Emo_Nback_20180527_v1-ABCD1234,1.0.0.1180,Verdana,1,Right,60.0506542241,ABCD1234,"['2', 'num_2', 'right']",1,Professional,2.0.10.356,2.0.10.356,06/25/2018,17:32:25,Stimuli/,2.0.10.252,0,1,0,160,['space'],2.0,0-Back,,,,,,,,,,,,,,,,500.0,83579.0,83579.0,83079.0,83079.0,,,,,,1.0,No Match,2000.0,83079.0,83079.0,81082.0,2.0,914,81997.0,81082.0,NeutFace,42M_NC.bmp,lure
Emo_Nback_20180527,1,Behavioral,"['1', 'num_1', 'left', '2', 'num_2', 'right']",0,0,0,Emo_Nback_20180527_v1-ABCD1234,1.0.0.1180,Verdana,1,Right,60.0506542241,ABCD1234,"['2', 'num_2', 'right']",1,Professional,2.0.10.356,2.0.10.356,06/25/2018,17:32:25,Stimuli/,2.0.10.252,0,1,0,160,['space'],2.0,0-Back,,,,,,,,,,,,,,,,500.0,86080.0,86080.0,85579.0,85579.0,,,,,,1.0,No Match,2000.0,85579.0,85579.0,83588.0,2.0,659,84248.0,83588.0,NeutFace,LM207_NC.bmp,nonlure
Emo_Nback_20180527,1,Behavioral,"['1', 'num_1', 'left', '2', 'num_2', 'right']",0,0,0,Emo_Nback_20180527_v1-ABCD1234,1.0.0.1180,Verdana,1,Right,60.0506542241,ABCD1234,"['2', 'num_2', 'right']",1,Professional,2.0.10.356,2.0.10.356,06/25/2018,17:32:25,Stimuli/,2.0.10.252,0,1,0,160,['space'],None,Fix15secPROC,,,,,,,,,,,,,,,,,,,,,15000.0,101082.0,101082.0,86082.0,86082.0,,,,,,,,0,,,None,None,None
Emo_Nback_20180527,1,Behavioral,"['1', 'num_1', 'left', '2', 'num_2', 'right']",0,0,0,Emo_Nback_20180527_v1-ABCD1234,1.0.0.1180,Verdana,1,Right,60.0506542241,ABCD1234,"['2', 'num_2', 'right']",1,Professional,2.0.10.356,2.0.10.356,06/25/2018,17:32:25,Stimuli/,2.0.10.252,0,1,0,160,['space'],3.0,Cue2Back,2500.0,104082.0,104082.0,101582.0,101582.0,500.0,101582.0,101582.0,101088.0,101088.0,,,,,,,,,,,,,,,,,,,,,,,0,,,Faces,None,None
Emo_Nback_20180527,1,Behavioral,"['1', 'num_1', 'left', '2', 'num_2', 'right']",0,0,0,Emo_Nback_20180527_v1-ABCD1234,1.0.0.1180,Verdana,1,Right,60.0506542241,ABCD1234,"['2', 'num_2', 'right']",1,Professional,2.0.10.356,2.0.10.356,06/25/2018,17:32:25,Stimuli/,2.0.10.252,0,1,0,160,['space'],3.0,2-Back,,,,,,,,,,,,,,,,500.0,106582.0,106582.0,106083.0,106083.0,,,,,,1.0,No Match,2000.0,106083.0,106083.0,104091.0,2.0,1576,105668.0,104091.0,NegFace,17F_FO.bmp,nonlure
Emo_Nback_20180527,1,Behavioral,"['1', 'num_1', 'left', '2', 'num_2', 'right']",0,0,0,Emo_Nback_20180527_v1-ABCD1234,1.0.0.1180,Verdana,1,Right,60.0506542241,ABCD1234,"['2', 'num_2', 'right']",1,Professional,2.0.10.356,2.0.10.356,06/25/2018,17:32:25,Stimuli/,2.0.10.252,0,1,0,160,['space'],3.0,2-Back,,,,,,,,,,,,,,,,500.0,109082.0,109082.0,108583.0,108583.0,,,,,,1.0,No Match,2000.0,108583.0,108583.0,106592.0,2.0,575,107168.0,106592.0,NegFace,HM03_FO.bmp,nonlure
Emo_Nback_20180527,1,Behavioral,"['1', 'num_1', 'left', '2', 'num_2', 'right']",0,0,0,Emo_Nback_20180527_v1-ABCD1234,1.0.0.1180,Verdana,1,Right,60.0506542241,ABCD1234,"['2', 'num_2', 'right']",1,Professional,2.0.10.356,2.0.10.356,06/25/2018,17:32:25,Stimuli/,2.0.10.252,0,1,0,160,['space'],3.0,2-Back,,,,,,,,,,,,,,,,500.0,111566.0,111566.0,111083.0,111083.0,,,,,,1.0,No Match,2000.0,111083.0,111083.0,109091.0,2.0,727,109819.0,109091.0,NegFace,BM045_FO.bmp,nonlure
Emo_Nback_20180527,1,Behavioral,"['1', 'num_1', 'left', '2', 'num_2', 'right']",0,0,0,Emo_Nback_20180527_v1-ABCD1234,1.0.0.1180,Verdana,1,Right,60.0506542241,ABCD1234,"['2', 'num_2', 'right']",1,Professional,2.0.10.356,2.0.10.356,06/25/2018,17:32:25,Stimuli/,2.0.10.252,0,1,0,160,['space'],3.0,2-Back,,,,,,,,,,,,,,,,500.0,114067.0,114067.0,113567.0,113567.0,,,,,,1.0,Match,2000.0,113567.0,113566.0,111572.0,1.0,729,112302.0,111572.0,NegFace,HM03_FO.bmp,target
Emo_Nback_20180527,1,Behavioral,"['1', 'num_1', 'left', '2', 'num_2', 'right']",0,0,0,Emo_Nback_20180527_v1-ABCD1234,1.0.0.1180,Verdana,1,Right,60.0506542241,ABCD1234,"['2', 'num_2', 'right']",1,Professional,2.0.10.356,2.0.10.356,06/25/2018,17:32:25,Stimuli/,2.0.10.252,0,1,0,160,['space'],3.0,2-Back,,,,,,,,,,,,,,,,500.0,116567.0,116567.0,116067.0,116067.0,,,,,,1.0,No Match,2000.0,116067.0,116067.0,114073.0,2.0,880,114953.0,114072.0,NegFace,17F_FO.bmp,lure
Emo_Nback_20180527,1,Behavioral,"['1', 'num_1', 'left', '2', 'num_2', 'right']",0,0,0,Emo_Nback_20180527_v1-ABCD1234,1.0.0.1180,Verdana,1,Right,60.0506542241,ABCD1234,"['2', 'num_2', 'right']",1,Professional,2.0.10.356,2.0.10.356,06/25/2018,17:32:25,Stimuli/,2.0.10.252,0,1,0,160,['space'],3.0,2-Back,,,,,,,,,,,,,,,,500.0,119068.0,119068.0,118567.0,118567.0,,,,,,1.0,No Match,2000.0,118567.0,118567.0,116573.0,2.0,1163,117737.0,116572.0,NegFace,BM045_FO.bmp,lure
Emo_Nback_20180527,1,Behavioral,"['1', 'num_1', 'left', '2', 'num_2', 'right']",0,0,0,Emo_Nback_20180527_v1-ABCD1234,1.0.0.1180,Verdana,1,Right,60.0506542241,ABCD1234,"['2', 'num_2', 'right']",1,Professional,2.0.10.356,2.0.10.356,06/25/2018,17:32:25,Stimuli/,2.0.10.252,0,1,0,160,['space'],3.0,2-Back,,,,,,,,,,,,,,,,500.0,121568.0,121568.0,121068.0,121068.0,,,,,,1.0,No Match,2000.0,121068.0,121068.0,119077.0,2.0,958,120036.0,119077.0,NegFace,9F_FO.bmp,nonlure
Emo_Nback_20180527,1,Behavioral,"['1', 'num_1', 'left', '2', 'num_2', 'right']",0,0,0,Emo_Nback_20180527_v1-ABCD1234,1.0.0.1180,Verdana,1,Right,60.0506542241,ABCD1234,"['2', 'num_2', 'right']",1,Professional,2.0.10.356,2.0.10.356,06/25/2018,17:32:25,Stimuli/,2.0.10.252,0,1,0,160,['space'],3.0,2-Back,,,,,,,,,,,,,,,,500.0,124068.0,124068.0,123568.0,123568.0,,,,,,1.0,No Match,2000.0,123568.0,123568.0,121577.0,2.0,675,122254.0,121577.0,NegFace,WM004_FO.bmp,nonlure
Emo_Nback_20180527,1,Behavioral,"['1', 'num_1', 'left', '2', 'num_2', 'right']",0,0,0,Emo_Nback_20180527_v1-ABCD1234,1.0.0.1180,Verdana,1,Right,60.0506542241,ABCD1234,"['2', 'num_2', 'right']",1,Professional,2.0.10.356,2.0.10.356,06/25/2018,17:32:25,Stimuli/,2.0.10.252,0,1,0,160,['space'],3.0,2-Back,,,,,,,,,,,,,,,,500.0,126568.0,126568.0,126069.0,126068.0,,,,,,1.0,Match,2000.0,126068.0,126068.0,124074.0,1.0,796,124870.0,124073.0,NegFace,9F_FO.bmp,target
Emo_Nback_20180527,1,Behavioral,"['1', 'num_1', 'left', '2', 'num_2', 'right']",0,0,0,Emo_Nback_20180527_v1-ABCD1234,1.0.0.1180,Verdana,1,Right,60.0506542241,ABCD1234,"['2', 'num_2', 'right']",1,Professional,2.0.10.356,2.0.10.356,06/25/2018,17:32:25,Stimuli/,2.0.10.252,0,1,0,160,['space'],3.0,2-Back,,,,,,,,,,,,,,,,500.0,129069.0,129069.0,128568.0,128568.0,,,,,,1.0,No Match,2000.0,128568.0,128568.0,126577.0,2.0,876,127454.0,126577.0,NegFace,BF06_FO.bmp,nonlure
Emo_Nback_20180527,1,Behavioral,"['1', 'num_1', 'left', '2', 'num_2', 'right']",0,0,0,Emo_Nback_20180527_v1-ABCD1234,1.0.0.1180,Verdana,1,Right,60.0506542241,ABCD1234,"['2', 'num_2', 'right']",1,Professional,2.0.10.356,2.0.10.356,06/25/2018,17:32:25,Stimuli/,2.0.10.252,0,1,0,160,['space'],4.0,Cue0Back,,,,,,500.0,129569.0,129569.0,129078.0,129077.0,2500.0,132070.0,132070.0,129569.0,129569.0,,,,,,,,,,,,,,,,,,0,,,Faces,34M_HO.bmp,target
Emo_Nback_20180527,1,Behavioral,"['1', 'num_1', 'left', '2', 'num_2', 'right']",0,0,0,Emo_Nback_20180527_v1-ABCD1234,1.0.0.1180,Verdana,1,Right,60.0506542241,ABCD1234,"['2', 'num_2', 'right']",1,Professional,2.0.10.356,2.0.10.356,06/25/2018,17:32:25,Stimuli/,2.0.10.252,0,1,0,160,['space'],4.0,0-Back,,,,,,,,,,,,,,,,500.0,134570.0,134570.0,134070.0,134070.0,,,,,,1.0,Match,2000.0,134070.0,134070.0,132076.0,1.0,762,132838.0,132075.0,PosFace,34M_HO.bmp,target
Emo_Nback_20180527,1,Behavioral,"['1', 'num_1', 'left', '2', 'num_2', 'right']",0,0,0,Emo_Nback_20180527_v1-ABCD1234,1.0.0.1180,Verdana,1,Right,60.0506542241,ABCD1234,"['2', 'num_2', 'right']",1,Professional,2.0.10.356,2.0.10.356,06/25/2018,17:32:25,Stimuli/,2.0.10.252,0,1,0,160,['space'],4.0,0-Back,,,,,,,,,,,,,,,,500.0,137070.0,137070.0,136570.0,136570.0,,,,,,1.0,No Match,2000.0,136570.0,136570.0,134579.0,2.0,943,135523.0,134578.0,PosFace,BM08_HO.bmp,nonlure
Emo_Nback_20180527,1,Behavioral,"['1', 'num_1', 'left', '2', 'num_2', 'right']",0,0,0,Emo_Nback_20180527_v1-ABCD1234,1.0.0.1180,Verdana,1,Right,60.0506542241,ABCD1234,"['2', 'num_2', 'right']",1,Professional,2.0.10.356,2.0.10.356,06/25/2018,17:32:25,Stimuli/,2.0.10.252,0,1,0,160,['space'],4.0,0-Back,,,,,,,,,,,,,,,,500.0,139570.0,139570.0,139070.0,139070.0,,,,,,1.0,No Match,2000.0,139070.0,139070.0,137079.0,2.0,642,137722.0,137079.0,PosFace,HF04_HO.bmp,nonlure
Emo_Nback_20180527,1,Behavioral,"['1', 'num_1', 'left', '2', 'num_2', 'right']",0,0,0,Emo_Nback_20180527_v1-ABCD1234,1.0.0.1180,Verdana,1,Right,60.0506542241,ABCD1234,"['2', 'num_2', 'right']",1,Professional,2.0.10.356,2.0.10.356,06/25/2018,17:32:25,Stimuli/,2.0.10.252,0,1,0,160,['space'],4.0,0-Back,,,,,,,,,,,,,,,,500.0,142070.0,142070.0,141570.0,141570.0,,,,,,1.0,No Match,2000.0,141570.0,141570.0,139581.0,2.0,724,140306.0,139581.0,PosFace,BF002_HO.bmp,nonlure
Emo_Nback_20180527,1,Behavioral,"['1', 'num_1', 'left', '2', 'num_2', 'right']",0,0,0,Emo_Nback_20180527_v1-ABCD1234,1.0.0.1180,Verdana,1,Right,60.0506542241,ABCD1234,"['2', 'num_2', 'right']",1,Professional,2.0.10.356,2.0.10.356,06/25/2018,17:32:25,Stimuli/,2.0.10.252,0,1,0,160,['space'],4.0,0-Back,,,,,,,,,,,,,,,,500.0,144571.0,144571.0,144070.0,144070.0,,,,,,1.0,No Match,2000.0,144070.0,144070.0,142076.0,2.0,497,142574.0,142076.0,PosFace,BM08_HO.bmp,lure
Emo_Nback_20180527,1,Behavioral,"['1', 'num_1', 'left', '2', 'num_2', 'right']",0,0,0,Emo_Nback_20180527_v1-ABCD1234,1.0.0.1180,Verdana,1,Right,60.0506542241,ABCD1234,"['2', 'num_2', 'right']",1,Professional,2.0.10.356,2.0.10.356,06/25/2018,17:32:25,Stimuli/,2.0.10.252,0,1,0,160,['space'],4.0,0-Back,,,,,,,,,,,,,,,,500.0,147072.0,147072.0,146571.0,146571.0,,,,,,1.0,No Match,2000.0,146571.0,146571.0,144580.0,2.0,693,145274.0,144579.0,PosFace,45M_HO.bmp,nonlure
Emo_Nback_20180527,1,Behavioral,"['1', 'num_1', 'left', '2', 'num_2', 'right']",0,0,0,Emo_Nback_20180527_v1-ABCD1234,1.0.0.1180,Verdana,1,Right,60.0506542241,ABCD1234,"['2', 'num_2', 'right']",1,Professional,2.0.10.356,2.0.10.356,06/25/2018,17:32:25,Stimuli/,2.0.10.252,0,1,0,160,['space'],4.0,0-Back,,,,,,,,,,,,,,,,500.0,149572.0,149572.0,149071.0,149071.0,,,,,,1.0,No Match,2000.0,149071.0,149071.0,147077.0,2.0,579,147657.0,147077.0,PosFace,45M_HO.bmp,lure
Emo_Nback_20180527,1,Behavioral,"['1', 'num_1', 'left', '2', 'num_2', 'right']",0,0,0,Emo_Nback_20180527_v1-ABCD1234,1.0.0.1180,Verdana,1,Right,60.0506542241,ABCD1234,"['2', 'num_2', 'right']",1,Professional,2.0.10.356,2.0.10.356,06/25/2018,17:32:25,Stimuli/,2.0.10.252,0,1,0,160,['space'],4.0,0-Back,,,,,,,,,,,,,,,,500.0,152072.0,152072.0,151572.0,151572.0,,,,,,1.0,No Match,2000.0,151572.0,151572.0,149578.0,2.0,745,150324.0,149578.0,PosFace,BF002_HO.bmp,lure
Emo_Nback_20180527,1,Behavioral,"['1', 'num_1', 'left', '2', 'num_2', 'right']",0,0,0,Emo_Nback_20180527_v1-ABCD1234,1.0.0.1180,Verdana,1,Right,60.0506542241,ABCD1234,"['2', 'num_2', 'right']",1,Professional,2.0.10.356,2.0.10.356,06/25/2018,17:32:25,Stimuli/,2.0.10.252,0,1,0,160,['space'],4.0,0-Back,,,,,,,,,,,,,,,,500.0,154572.0,154572.0,154072.0,154072.0,,,,,,1.0,Match,2000.0,154072.0,154072.0,152078.0,1.0,679,152757.0,152077.0,PosFace,34M_HO.bmp,target
Emo_Nback_20180527,1,Behavioral,"['1', 'num_1', 'left', '2', 'num_2', 'right']",0,0,0,Emo_Nback_20180527_v1-ABCD1234,1.0.0.1180,Verdana,1,Right,60.0506542241,ABCD1234,"['2', 'num_2', 'right']",1,Professional,2.0.10.356,2.0.10.356,06/25/2018,17:32:25,Stimuli/,2.0.10.252,0,1,0,160,['space'],4.0,0-Back,,,,,,,,,,,,,,,,500.0,157073.0,157073.0,156573.0,156573.0,,,,,,1.0,No Match,2000.0,156573.0,156573.0,154583.0,2.0,974,155558.0,154583.0,PosFace,WF07_HO.bmp,nonlure
Emo_Nback_20180527,1,Behavioral,"['1', 'num_1', 'left', '2', 'num_2', 'right']",0,0,0,Emo_Nback_20180527_v1-ABCD1234,1.0.0.1180,Verdana,1,Right,60.0506542241,ABCD1234,"['2', 'num_2', 'right']",1,Professional,2.0.10.356,2.0.10.356,06/25/2018,17:32:25,Stimuli/,2.0.10.252,0,1,0,160,['space'],None,Fix15secPROC,,,,,,,,,,,,,,,,,,,,,15000.0,172075.0,172075.0,157076.0,157076.0,,,,,,,,0,,,None,None,None
Emo_Nback_20180527,1,Behavioral,"['1', 'num_1', 'left', '2', 'num_2', 'right']",0,0,0,Emo_Nback_20180527_v1-ABCD1234,1.0.0.1180,Verdana,1,Right,60.0506542241,ABCD1234,"['2', 'num_2', 'right']",1,Professional,2.0.10.356,2.0.10.356,06/25/2018,17:32:25,Stimuli/,2.0.10.252,0,1,0,160,['space'],5.0,Cue0Back,,,,,,500.0,172575.0,172575.0,172085.0,172085.0,2500.0,175076.0,175076.0,172576.0,172575.0,,,,,,,,,,,,,,,,,,0,,,Place,PL_001_92012.bmp,target
Emo_Nback_20180527,1,Behavioral,"['1', 'num_1', 'left', '2', 'num_2', 'right']",0,0,0,Emo_Nback_20180527_v1-ABCD1234,1.0.0.1180,Verdana,1,Right,60.0506542241,ABCD1234,"['2', 'num_2', 'right']",1,Professional,2.0.10.356,2.0.10.356,06/25/2018,17:32:25,Stimuli/,2.0.10.252,0,1,0,160,['space'],5.0,0-Back,,,,,,,,,,,,,,,,500.0,177576.0,177576.0,177076.0,177076.0,,,,,,0.0,No Match,2000.0,177076.0,177076.0,175084.0,,0,0.0,175083.0,Place,PL_003_92016.bmp,nonlure
Emo_Nback_20180527,1,Behavioral,"['1', 'num_1', 'left', '2', 'num_2', 'right']",0,0,0,Emo_Nback_20180527_v1-ABCD1234,1.0.0.1180,Verdana,1,Right,60.0506542241,ABCD1234,"['2', 'num_2', 'right']",1,Professional,2.0.10.356,2.0.10.356,06/25/2018,17:32:25,Stimuli/,2.0.10.252,0,1,0,160,['space'],5.0,0-Back,,,,,,,,,,,,,,,,500.0,180076.0,180075.0,179576.0,179576.0,,,,,,0.0,No Match,2000.0,179576.0,179576.0,177582.0,,0,0.0,177581.0,Place,PL_003_92016.bmp,lure
Emo_Nback_20180527,1,Behavioral,"['1', 'num_1', 'left', '2', 'num_2', 'right']",0,0,0,Emo_Nback_20180527_v1-ABCD1234,1.0.0.1180,Verdana,1,Right,60.0506542241,ABCD1234,"['2', 'num_2', 'right']",1,Professional,2.0.10.356,2.0.10.356,06/25/2018,17:32:25,Stimuli/,2.0.10.252,0,1,0,160,['space'],5.0,0-Back,,,,,,,,,,,,,,,,500.0,182568.0,182568.0,182068.0,182068.0,,,,,,0.0,No Match,2000.0,182068.0,182067.0,180084.0,,0,0.0,180084.0,Place,PL_006_92025.bmp,nonlure
Emo_Nback_20180527,1,Behavioral,"['1', 'num_1', 'left', '2', 'num_2', 'right']",0,0,0,Emo_Nback_20180527_v1-ABCD1234,1.0.0.1180,Verdana,1,Right,60.0506542241,ABCD1234,"['2', 'num_2', 'right']",1,Professional,2.0.10.356,2.0.10.356,06/25/2018,17:32:25,Stimuli/,2.0.10.252,0,1,0,160,['space'],5.0,0-Back,,,,,,,,,,,,,,,,500.0,185067.0,185067.0,184568.0,184568.0,,,,,,0.0,Match,2000.0,184568.0,184568.0,182572.0,,0,0.0,182571.0,Place,PL_001_92012.bmp,target
Emo_Nback_20180527,1,Behavioral,"['1', 'num_1', 'left', '2', 'num_2', 'right']",0,0,0,Emo_Nback_20180527_v1-ABCD1234,1.0.0.1180,Verdana,1,Right,60.0506542241,ABCD1234,"['2', 'num_2', 'right']",1,Professional,2.0.10.356,2.0.10.356,06/25/2018,17:32:25,Stimuli/,2.0.10.252,0,1,0,160,['space'],5.0,0-Back,,,,,,,,,,,,,,,,500.0,187567.0,187567.0,187068.0,187068.0,,,,,,0.0,No Match,2000.0,187068.0,187068.0,185073.0,,0,0.0,185073.0,Place,PL_004_92023.bmp,nonlure
Emo_Nback_20180527,1,Behavioral,"['1', 'num_1', 'left', '2', 'num_2', 'right']",0,0,0,Emo_Nback_20180527_v1-ABCD1234,1.0.0.1180,Verdana,1,Right,60.0506542241,ABCD1234,"['2', 'num_2', 'right']",1,Professional,2.0.10.356,2.0.10.356,06/25/2018,17:32:25,Stimuli/,2.0.10.252,0,1,0,160,['space'],5.0,0-Back,,,,,,,,,,,,,,,,500.0,190066.0,190066.0,189567.0,189567.0,,,,,,0.0,No Match,2000.0,189567.0,189567.0,187574.0,,0,0.0,187573.0,Place,PL_005_92024.bmp,nonlure
Emo_Nback_20180527,1,Behavioral,"['1', 'num_1', 'left', '2', 'num_2', 'right']",0,0,0,Emo_Nback_20180527_v1-ABCD1234,1.0.0.1180,Verdana,1,Right,60.0506542241,ABCD1234,"['2', 'num_2', 'right']",1,Professional,2.0.10.356,2.0.10.356,06/25/2018,17:32:25,Stimuli/,2.0.10.252,0,1,0,160,['space'],5.0,0-Back,,,,,,,,,,,,,,,,500.0,192567.0,192567.0,192066.0,192066.0,,,,,,0.0,Match,2000.0,192066.0,192066.0,190070.0,,0,0.0,190070.0,Place,PL_001_92012.bmp,target
Emo_Nback_20180527,1,Behavioral,"['1', 'num_1', 'left', '2', 'num_2', 'right']",0,0,0,Emo_Nback_20180527_v1-ABCD1234,1.0.0.1180,Verdana,1,Right,60.0506542241,ABCD1234,"['2', 'num_2', 'right']",1,Professional,2.0.10.356,2.0.10.356,06/25/2018,17:32:25,Stimuli/,2.0.10.252,0,1,0,160,['space'],5.0,0-Back,,,,,,,,,,,,,,,,500.0,195067.0,195067.0,194569.0,194569.0,,,,,,0.0,No Match,2000.0,194569.0,194569.0,192573.0,,0,0.0,192573.0,Place,PL_002_92014.bmp,nonlure
Emo_Nback_20180527,1,Behavioral,"['1', 'num_1', 'left', '2', 'num_2', 'right']",0,0,0,Emo_Nback_20180527_v1-ABCD1234,1.0.0.1180,Verdana,1,Right,60.0506542241,ABCD1234,"['2', 'num_2', 'right']",1,Professional,2.0.10.356,2.0.10.356,06/25/2018,17:32:25,Stimuli/,2.0.10.252,0,1,0,160,['space'],5.0,0-Back,,,,,,,,,,,,,,,,500.0,197567.0,197567.0,197067.0,197067.0,,,,,,0.0,No Match,2000.0,197067.0,197067.0,195071.0,,0,0.0,195071.0,Place,PL_004_92023.bmp,lure
Emo_Nback_20180527,1,Behavioral,"['1', 'num_1', 'left', '2', 'num_2', 'right']",0,0,0,Emo_Nback_20180527_v1-ABCD1234,1.0.0.1180,Verdana,1,Right,60.0506542241,ABCD1234,"['2', 'num_2', 'right']",1,Professional,2.0.10.356,2.0.10.356,06/25/2018,17:32:25,Stimuli/,2.0.10.252,0,1,0,160,['space'],5.0,0-Back,,,,,,,,,,,,,,,,500.0,200067.0,200067.0,199566.0,199566.0,,,,,,0.0,No Match,2000.0,199566.0,199566.0,197570.0,,0,0.0,197570.0,Place,PL_006_92025.bmp,lure
Emo_Nback_20180527,1,Behavioral,"['1', 'num_1', 'left', '2', 'num_2', 'right']",0,0,0,Emo_Nback_20180527_v1-ABCD1234,1.0.0.1180,Verdana,1,Right,60.0506542241,ABCD1234,"['2', 'num_2', 'right']",1,Professional,2.0.10.356,2.0.10.356,06/25/2018,17:32:25,Stimuli/,2.0.10.252,0,1,0,160,['space'],6.0,Cue2Back,2500.0,203068.0,203068.0,200568.0,200568.0,500.0,200568.0,200568.0,200071.0,200071.0,,,,,,,,,,,,,,,,,,,,,,,0,,,Faces,None,None
Emo_Nback_20180527,1,Behavioral,"['1', 'num_1', 'left', '2', 'num_2', 'right']",0,0,0,Emo_Nback_20180527_v1-ABCD1234,1.0.0.1180,Verdana,1,Right,60.0506542241,ABCD1234,"['2', 'num_2', 'right']",1,Professional,2.0.10.356,2.0.10.356,06/25/2018,17:32:25,Stimuli/,2.0.10.252,0,1,0,160,['space'],6.0,2-Back,,,,,,,,,,,,,,,,500.0,205569.0,205569.0,205067.0,205067.0,,,,,,0.0,No Match,2000.0,205067.0,205067.0,203074.0,,0,0.0,203074.0,NeutFace,AM228_NC.bmp,nonlure
Emo_Nback_20180527,1,Behavioral,"['1', 'num_1', 'left', '2', 'num_2', 'right']",0,0,0,Emo_Nback_20180527_v1-ABCD1234,1.0.0.1180,Verdana,1,Right,60.0506542241,ABCD1234,"['2', 'num_2', 'right']",1,Professional,2.0.10.356,2.0.10.356,06/25/2018,17:32:25,Stimuli/,2.0.10.252,0,1,0,160,['space'],6.0,2-Back,,,,,,,,,,,,,,,,500.0,208068.0,208067.0,207568.0,207568.0,,,,,,0.0,No Match,2000.0,207568.0,207568.0,205575.0,,0,0.0,205575.0,NeutFace,26M_NC.bmp,nonlure
Emo_Nback_20180527,1,Behavioral,"['1', 'num_1', 'left', '2', 'num_2', 'right']",0,0,0,Emo_Nback_20180527_v1-ABCD1234,1.0.0.1180,Verdana,1,Right,60.0506542241,ABCD1234,"['2', 'num_2', 'right']",1,Professional,2.0.10.356,2.0.10.356,06/25/2018,17:32:25,Stimuli/,2.0.10.252,0,1,0,160,['space'],6.0,2-Back,,,,,,,,,,,,,,,,500.0,210566.0,210566.0,210068.0,210068.0,,,,,,0.0,Match,2000.0,210068.0,210068.0,208071.0,,0,0.0,208071.0,NeutFace,AM228_NC.bmp,target
Emo_Nback_20180527,1,Behavioral,"['1', 'num_1', 'left', '2', 'num_2', 'right']",0,0,0,Emo_Nback_20180527_v1-ABCD1234,1.0.0.1180,Verdana,1,Right,60.0506542241,ABCD1234,"['2', 'num_2', 'right']",1,Professional,2.0.10.356,2.0.10.356,06/25/2018,17:32:25,Stimuli/,2.0.10.252,0,1,0,160,['space'],6.0,2-Back,,,,,,,,,,,,,,,,500.0,213068.0,213068.0,212567.0,212567.0,,,,,,0.0,No Match,2000.0,212567.0,212567.0,210573.0,,0,0.0,210572.0,NeutFace,LF227_NC.bmp,nonlure
Emo_Nback_20180527,1,Behavioral,"['1', 'num_1', 'left', '2', 'num_2', 'right']",0,0,0,Emo_Nback_20180527_v1-ABCD1234,1.0.0.1180,Verdana,1,Right,60.0506542241,ABCD1234,"['2', 'num_2', 'right']",1,Professional,2.0.10.356,2.0.10.356,06/25/2018,17:32:25,Stimuli/,2.0.10.252,0,1,0,160,['space'],6.0,2-Back,,,,,,,,,,,,,,,,500.0,215579.0,215579.0,215080.0,215080.0,,,,,,0.0,No Match,2000.0,215080.0,215080.0,213072.0,,0,0.0,213072.0,NeutFace,26M_NC.bmp,lure
Emo_Nback_20180527,1,Behavioral,"['1', 'num_1', 'left', '2', 'num_2', 'right']",0,0,0,Emo_Nback_20180527_v1-ABCD1234,1.0.0.1180,Verdana,1,Right,60.0506542241,ABCD1234,"['2', 'num_2', 'right']",1,Professional,2.0.10.356,2.0.10.356,06/25/2018,17:32:25,Stimuli/,2.0.10.252,0,1,0,160,['space'],6.0,2-Back,,,,,,,,,,,,,,,,500.0,218081.0,218081.0,217572.0,217572.0,,,,,,0.0,Match,2000.0,217572.0,217572.0,215583.0,,0,0.0,215583.0,NeutFace,LF227_NC.bmp,target
Emo_Nback_20180527,1,Behavioral,"['1', 'num_1', 'left', '2', 'num_2', 'right']",0,0,0,Emo_Nback_20180527_v1-ABCD1234,1.0.0.1180,Verdana,1,Right,60.0506542241,ABCD1234,"['2', 'num_2', 'right']",1,Professional,2.0.10.356,2.0.10.356,06/25/2018,17:32:25,Stimuli/,2.0.10.252,0,1,0,160,['space'],6.0,2-Back,,,,,,,,,,,,,,,,500.0,220582.0,220582.0,220083.0,220083.0,,,,,,0.0,No Match,2000.0,220083.0,220083.0,218090.0,,0,0.0,218089.0,NeutFace,AF206_NC.bmp,nonlure
Emo_Nback_20180527,1,Behavioral,"['1', 'num_1', 'left', '2', 'num_2', 'right']",0,0,0,Emo_Nback_20180527_v1-ABCD1234,1.0.0.1180,Verdana,1,Right,60.0506542241,ABCD1234,"['2', 'num_2', 'right']",1,Professional,2.0.10.356,2.0.10.356,06/25/2018,17:32:25,Stimuli/,2.0.10.252,0,1,0,160,['space'],6.0,2-Back,,,,,,,,,,,,,,,,500.0,223073.0,223073.0,222581.0,222581.0,,,,,,0.0,No Match,2000.0,222581.0,222581.0,220586.0,,0,0.0,220585.0,NeutFace,AF206_NC.bmp,lure
Emo_Nback_20180527,1,Behavioral,"['1', 'num_1', 'left', '2', 'num_2', 'right']",0,0,0,Emo_Nback_20180527_v1-ABCD1234,1.0.0.1180,Verdana,1,Right,60.0506542241,ABCD1234,"['2', 'num_2', 'right']",1,Professional,2.0.10.356,2.0.10.356,06/25/2018,17:32:25,Stimuli/,2.0.10.252,0,1,0,160,['space'],6.0,2-Back,,,,,,,,,,,,,,,,500.0,225567.0,225567.0,225067.0,225067.0,,,,,,0.0,No Match,2000.0,225067.0,225067.0,223078.0,,0,0.0,223078.0,NeutFace,BM03_NC.bmp,nonlure
Emo_Nback_20180527,1,Behavioral,"['1', 'num_1', 'left', '2', 'num_2', 'right']",0,0,0,Emo_Nback_20180527_v1-ABCD1234,1.0.0.1180,Verdana,1,Right,60.0506542241,ABCD1234,"['2', 'num_2', 'right']",1,Professional,2.0.10.356,2.0.10.356,06/25/2018,17:32:25,Stimuli/,2.0.10.252,0,1,0,160,['space'],6.0,2-Back,,,,,,,,,,,,,,,,500.0,228068.0,228068.0,227569.0,227569.0,,,,,,0.0,No Match,2000.0,227569.0,227569.0,225574.0,,0,0.0,225574.0,NeutFace,WF012_NC.bmp,nonlure
Emo_Nback_20180527,1,Behavioral,"['1', 'num_1', 'left', '2', 'num_2', 'right']",0,0,0,Emo_Nback_20180527_v1-ABCD1234,1.0.0.1180,Verdana,1,Right,60.0506542241,ABCD1234,"['2', 'num_2', 'right']",1,Professional,2.0.10.356,2.0.10.356,06/25/2018,17:32:25,Stimuli/,2.0.10.252,0,1,0,160,['space'],None,Fix15secPROC,,,,,,,,,,,,,,,,,,,,,15000.0,243066.0,243066.0,228070.0,228070.0,,,,,,,,0,,,None,None,None
Emo_Nback_20180527,1,Behavioral,"['1', 'num_1', 'left', '2', 'num_2', 'right']",0,0,0,Emo_Nback_20180527_v1-ABCD1234,1.0.0.1180,Verdana,1,Right,60.0506542241,ABCD1234,"['2', 'num_2', 'right']",1,Professional,2.0.10.356,2.0.10.356,06/25/2018,17:32:25,Stimuli/,2.0.10.252,0,1,0,160,['space'],7.0,Cue0Back,,,,,,500.0,243568.0,243568.0,243073.0,243073.0,2500.0,246111.0,246111.0,243568.0,243568.0,,,,,,,,,,,,,,,,,,0,,,Faces,39M_FO.bmp,target
Emo_Nback_20180527,1,Behavioral,"['1', 'num_1', 'left', '2', 'num_2', 'right']",0,0,0,Emo_Nback_20180527_v1-ABCD1234,1.0.0.1180,Verdana,1,Right,60.0506542241,ABCD1234,"['2', 'num_2', 'right']",1,Professional,2.0.10.356,2.0.10.356,06/25/2018,17:32:25,Stimuli/,2.0.10.252,0,1,0,160,['space'],7.0,0-Back,,,,,,,,,,,,,,,,500.0,248566.0,248566.0,248066.0,248066.0,,,,,,0.0,No Match,2000.0,248066.0,248066.0,246118.0,,0,0.0,246118.0,NegFace,BF003_FO.bmp,nonlure
Emo_Nback_20180527,1,Behavioral,"['1', 'num_1', 'left', '2', 'num_2', 'right']",0,0,0,Emo_Nback_20180527_v1-ABCD1234,1.0.0.1180,Verdana,1,Right,60.0506542241,ABCD1234,"['2', 'num_2', 'right']",1,Professional,2.0.10.356,2.0.10.356,06/25/2018,17:32:25,Stimuli/,2.0.10.252,0,1,0,160,['space'],7.0,0-Back,,,,,,,,,,,,,,,,500.0,251067.0,251066.0,250568.0,250568.0,,,,,,0.0,No Match,2000.0,250568.0,250568.0,248573.0,,0,0.0,248573.0,NegFace,HM05_FO.bmp,nonlure
Emo_Nback_20180527,1,Behavioral,"['1', 'num_1', 'left', '2', 'num_2', 'right']",0,0,0,Emo_Nback_20180527_v1-ABCD1234,1.0.0.1180,Verdana,1,Right,60.0506542241,ABCD1234,"['2', 'num_2', 'right']",1,Professional,2.0.10.356,2.0.10.356,06/25/2018,17:32:25,Stimuli/,2.0.10.252,0,1,0,160,['space'],7.0,0-Back,,,,,,,,,,,,,,,,500.0,253570.0,253570.0,253070.0,253070.0,,,,,,0.0,No Match,2000.0,253070.0,253070.0,251070.0,,0,0.0,251070.0,NegFace,HM05_FO.bmp,lure
Emo_Nback_20180527,1,Behavioral,"['1', 'num_1', 'left', '2', 'num_2', 'right']",0,0,0,Emo_Nback_20180527_v1-ABCD1234,1.0.0.1180,Verdana,1,Right,60.0506542241,ABCD1234,"['2', 'num_2', 'right']",1,Professional,2.0.10.356,2.0.10.356,06/25/2018,17:32:25,Stimuli/,2.0.10.252,0,1,0,160,['space'],7.0,0-Back,,,,,,,,,,,,,,,,500.0,256074.0,256074.0,255567.0,255567.0,,,,,,0.0,No Match,2000.0,255567.0,255567.0,253576.0,,0,0.0,253576.0,NegFace,10F_FO.bmp,nonlure
Emo_Nback_20180527,1,Behavioral,"['1', 'num_1', 'left', '2', 'num_2', 'right']",0,0,0,Emo_Nback_20180527_v1-ABCD1234,1.0.0.1180,Verdana,1,Right,60.0506542241,ABCD1234,"['2', 'num_2', 'right']",1,Professional,2.0.10.356,2.0.10.356,06/25/2018,17:32:25,Stimuli/,2.0.10.252,0,1,0,160,['space'],7.0,0-Back,,,,,,,,,,,,,,,,500.0,258567.0,258567.0,258066.0,258066.0,,,,,,0.0,No Match,2000.0,258066.0,258066.0,256082.0,,0,0.0,256081.0,NegFace,BF09_FO.bmp,nonlure
Emo_Nback_20180527,1,Behavioral,"['1', 'num_1', 'left', '2', 'num_2', 'right']",0,0,0,Emo_Nback_20180527_v1-ABCD1234,1.0.0.1180,Verdana,1,Right,60.0506542241,ABCD1234,"['2', 'num_2', 'right']",1,Professional,2.0.10.356,2.0.10.356,06/25/2018,17:32:25,Stimuli/,2.0.10.252,0,1,0,160,['space'],7.0,0-Back,,,,,,,,,,,,,,,,500.0,261068.0,261068.0,260566.0,260566.0,,,,,,0.0,No Match,2000.0,260566.0,260566.0,258573.0,,0,0.0,258573.0,NegFace,28M_FO.bmp,nonlure
Emo_Nback_20180527,1,Behavioral,"['1', 'num_1', 'left', '2', 'num_2', 'right']",0,0,0,Emo_Nback_20180527_v1-ABCD1234,1.0.0.1180,Verdana,1,Right,60.0506542241,ABCD1234,"['2', 'num_2', 'right']",1,Professional,2.0.10.356,2.0.10.356,06/25/2018,17:32:25,Stimuli/,2.0.10.252,0,1,0,160,['space'],7.0,0-Back,,,,,,,,,,,,,,,,500.0,263566.0,263566.0,263067.0,263067.0,,,,,,0.0,No Match,2000.0,263067.0,263067.0,261072.0,,0,0.0,261071.0,NegFace,BF003_FO.bmp,lure
Emo_Nback_20180527,1,Behavioral,"['1', 'num_1', 'left', '2', 'num_2', 'right']",0,0,0,Emo_Nback_20180527_v1-ABCD1234,1.0.0.1180,Verdana,1,Right,60.0506542241,ABCD1234,"['2', 'num_2', 'right']",1,Professional,2.0.10.356,2.0.10.356,06/25/2018,17:32:25,Stimuli/,2.0.10.252,0,1,0,160,['space'],7.0,0-Back,,,,,,,,,,,,,,,,500.0,266067.0,266067.0,265567.0,265567.0,,,,,,0.0,Match,2000.0,265567.0,265567.0,263570.0,,0,0.0,263570.0,NegFace,39M_FO.bmp,target
Emo_Nback_20180527,1,Behavioral,"['1', 'num_1', 'left', '2', 'num_2', 'right']",0,0,0,Emo_Nback_20180527_v1-ABCD1234,1.0.0.1180,Verdana,1,Right,60.0506542241,ABCD1234,"['2', 'num_2', 'right']",1,Professional,2.0.10.356,2.0.10.356,06/25/2018,17:32:25,Stimuli/,2.0.10.252,0,1,0,160,['space'],7.0,0-Back,,,,,,,,,,,,,,,,500.0,268567.0,268567.0,268067.0,268067.0,,,,,,0.0,No Match,2000.0,268067.0,268067.0,266071.0,,0,0.0,266071.0,NegFace,10F_FO.bmp,lure
Emo_Nback_20180527,1,Behavioral,"['1', 'num_1', 'left', '2', 'num_2', 'right']",0,0,0,Emo_Nback_20180527_v1-ABCD1234,1.0.0.1180,Verdana,1,Right,60.0506542241,ABCD1234,"['2', 'num_2', 'right']",1,Professional,2.0.10.356,2.0.10.356,06/25/2018,17:32:25,Stimuli/,2.0.10.252,0,1,0,160,['space'],7.0,0-Back,,,,,,,,,,,,,,,,500.0,271067.0,271067.0,270567.0,270567.0,,,,,,0.0,Match,2000.0,270567.0,270567.0,268571.0,,0,0.0,268570.0,NegFace,39M_FO.bmp,target
Emo_Nback_20180527,1,Behavioral,"['1', 'num_1', 'left', '2', 'num_2', 'right']",0,0,0,Emo_Nback_20180527_v1-ABCD1234,1.0.0.1180,Verdana,1,Right,60.0506542241,ABCD1234,"['2', 'num_2', 'right']",1,Professional,2.0.10.356,2.0.10.356,06/25/2018,17:32:25,Stimuli/,2.0.10.252,0,1,0,160,['space'],8.0,Cue2Back,2500.0,274066.0,274066.0,271567.0,271567.0,500.0,271567.0,271567.0,271072.0,271072.0,,,,,,,,,,,,,,,,,,,,,,,0,,,Faces,None,None
Emo_Nback_20180527,1,Behavioral,"['1', 'num_1', 'left', '2', 'num_2', 'right']",0,0,0,Emo_Nback_20180527_v1-ABCD1234,1.0.0.1180,Verdana,1,Right,60.0506542241,ABCD1234,"['2', 'num_2', 'right']",1,Professional,2.0.10.356,2.0.10.356,06/25/2018,17:32:25,Stimuli/,2.0.10.252,0,1,0,160,['space'],8.0,2-Back,,,,,,,,,,,,,,,,500.0,276567.0,276567.0,276067.0,276067.0,,,,,,0.0,No Match,2000.0,276067.0,276067.0,274072.0,,0,0.0,274072.0,Place,PL_007_92026.bmp,nonlure
Emo_Nback_20180527,1,Behavioral,"['1', 'num_1', 'left', '2', 'num_2', 'right']",0,0,0,Emo_Nback_20180527_v1-ABCD1234,1.0.0.1180,Verdana,1,Right,60.0506542241,ABCD1234,"['2', 'num_2', 'right']",1,Professional,2.0.10.356,2.0.10.356,06/25/2018,17:32:25,Stimuli/,2.0.10.252,0,1,0,160,['space'],8.0,2-Back,,,,,,,,,,,,,,,,500.0,279071.0,279071.0,278567.0,278567.0,,,,,,0.0,No Match,2000.0,278567.0,278567.0,276571.0,,0,0.0,276570.0,Place,PL_007_92026.bmp,lure
Emo_Nback_20180527,1,Behavioral,"['1', 'num_1', 'left', '2', 'num_2', 'right']",0,0,0,Emo_Nback_20180527_v1-ABCD1234,1.0.0.1180,Verdana,1,Right,60.0506542241,ABCD1234,"['2', 'num_2', 'right']",1,Professional,2.0.10.356,2.0.10.356,06/25/2018,17:32:25,Stimuli/,2.0.10.252,0,1,0,160,['space'],8.0,2-Back,,,,,,,,,,,,,,,,500.0,281575.0,281575.0,281073.0,281073.0,,,,,,0.0,No Match,2000.0,281073.0,281073.0,279078.0,,0,0.0,279078.0,Place,PL_010_92038.bmp,nonlure
Emo_Nback_20180527,1,Behavioral,"['1', 'num_1', 'left', '2', 'num_2', 'right']",0,0,0,Emo_Nback_20180527_v1-ABCD1234,1.0.0.1180,Verdana,1,Right,60.0506542241,ABCD1234,"['2', 'num_2', 'right']",1,Professional,2.0.10.356,2.0.10.356,06/25/2018,17:32:25,Stimuli/,2.0.10.252,0,1,0,160,['space'],8.0,2-Back,,,,,,,,,,,,,,,,500.0,284067.0,284067.0,283577.0,283577.0,,,,,,0.0,No Match,2000.0,283577.0,283576.0,281584.0,,0,0.0,281583.0,Place,PL_009_92037.bmp,nonlure
Emo_Nback_20180527,1,Behavioral,"['1', 'num_1', 'left', '2', 'num_2', 'right']",0,0,0,Emo_Nback_20180527_v1-ABCD1234,1.0.0.1180,Verdana,1,Right,60.0506542241,ABCD1234,"['2', 'num_2', 'right']",1,Professional,2.0.10.356,2.0.10.356,06/25/2018,17:32:25,Stimuli/,2.0.10.252,0,1,0,160,['space'],8.0,2-Back,,,,,,,,,,,,,,,,500.0,286567.0,286567.0,286067.0,286067.0,,,,,,0.0,Match,2000.0,286067.0,286067.0,284071.0,,0,0.0,284071.0,Place,PL_010_92038.bmp,target
Emo_Nback_20180527,1,Behavioral,"['1', 'num_1', 'left', '2', 'num_2', 'right']",0,0,0,Emo_Nback_20180527_v1-ABCD1234,1.0.0.1180,Verdana,1,Right,60.0506542241,ABCD1234,"['2', 'num_2', 'right']",1,Professional,2.0.10.356,2.0.10.356,06/25/2018,17:32:25,Stimuli/,2.0.10.252,0,1,0,160,['space'],8.0,2-Back,,,,,,,,,,,,,,,,500.0,289067.0,289067.0,288568.0,288568.0,,,,,,0.0,Match,2000.0,288568.0,288568.0,286571.0,,0,0.0,286570.0,Place,PL_009_92037.bmp,target
Emo_Nback_20180527,1,Behavioral,"['1', 'num_1', 'left', '2', 'num_2', 'right']",0,0,0,Emo_Nback_20180527_v1-ABCD1234,1.0.0.1180,Verdana,1,Right,60.0506542241,ABCD1234,"['2', 'num_2', 'right']",1,Professional,2.0.10.356,2.0.10.356,06/25/2018,17:32:25,Stimuli/,2.0.10.252,0,1,0,160,['space'],8.0,2-Back,,,,,,,,,,,,,,,,500.0,291566.0,291566.0,291068.0,291068.0,,,,,,0.0,No Match,2000.0,291068.0,291068.0,289077.0,,0,0.0,289077.0,Place,PL_008_92033.bmp,nonlure
Emo_Nback_20180527,1,Behavioral,"['1', 'num_1', 'left', '2', 'num_2', 'right']",0,0,0,Emo_Nback_20180527_v1-ABCD1234,1.0.0.1180,Verdana,1,Right,60.0506542241,ABCD1234,"['2', 'num_2', 'right']",1,Professional,2.0.10.356,2.0.10.356,06/25/2018,17:32:25,Stimuli/,2.0.10.252,0,1,0,160,['space'],8.0,2-Back,,,,,,,,,,,,,,,,500.0,294066.0,294066.0,293567.0,293567.0,,,,,,0.0,No Match,2000.0,293567.0,293566.0,291573.0,,0,0.0,291573.0,Place,PL_012_92047.bmp,nonlure
Emo_Nback_20180527,1,Behavioral,"['1', 'num_1', 'left', '2', 'num_2', 'right']",0,0,0,Emo_Nback_20180527_v1-ABCD1234,1.0.0.1180,Verdana,1,Right,60.0506542241,ABCD1234,"['2', 'num_2', 'right']",1,Professional,2.0.10.356,2.0.10.356,06/25/2018,17:32:25,Stimuli/,2.0.10.252,0,1,0,160,['space'],8.0,2-Back,,,,,,,,,,,,,,,,500.0,296566.0,296566.0,296067.0,296067.0,,,,,,0.0,No Match,2000.0,296067.0,296067.0,294070.0,,0,0.0,294070.0,Place,PL_012_92047.bmp,lure
Emo_Nback_20180527,1,Behavioral,"['1', 'num_1', 'left', '2', 'num_2', 'right']",0,0,0,Emo_Nback_20180527_v1-ABCD1234,1.0.0.1180,Verdana,1,Right,60.0506542241,ABCD1234,"['2', 'num_2', 'right']",1,Professional,2.0.10.356,2.0.10.356,06/25/2018,17:32:25,Stimuli/,2.0.10.252,0,1,0,160,['space'],8.0,2-Back,,,,,,,,,,,,,,,,500.0,299068.0,299068.0,298566.0,298566.0,,,,,,0.0,No Match,2000.0,298566.0,298566.0,296573.0,,0,0.0,296573.0,Place,PL_011_92044.bmp,nonlure
Emo_Nback_20180527,1,Behavioral,"['1', 'num_1', 'left', '2', 'num_2', 'right']",0,0,0,Emo_Nback_20180527_v1-ABCD1234,1.0.0.1180,Verdana,1,Right,60.0506542241,ABCD1234,"['2', 'num_2', 'right']",1,Professional,2.0.10.356,2.0.10.356,06/25/2018,17:32:25,Stimuli/,2.0.10.252,0,1,0,160,['space'],None,Fix15secPROC,,,,,,,,,,,,,,,,,,,,,15000.0,314066.0,314066.0,299069.0,299069.0,,,,,,,,0,,,None,None,None
Emo_Nback_20180527,1,Behavioral,"['1', 'num_1', 'left', '2', 'num_2', 'right']",0,0,0,Emo_Nback_20180527_v1-ABCD1234,1.0.0.1180,Verdana,1,Right,60.0506542241,ABCD1234,"['2', 'num_2', 'right']",1,Professional,2.0.10.356,2.0.10.356,06/25/2018,17:32:25,Stimuli/,2.0.10.252,0,1,0,160,['space'],,Cue2Back,2500.0,412427.0,412427.0,409925.0,409925.0,500.0,409925.0,409925.0,409427.0,409427.0,,,,,,,,,,,,,,,,,,,,,,,0,,,Faces,,
Emo_Nback_20180527,1,Behavioral,"['1', 'num_1', 'left', '2', 'num_2', 'right']",0,0,0,Emo_Nback_20180527_v1-ABCD1234,1.0.0.1180,Verdana,1,Right,60.0506542241,ABCD1234,"['2', 'num_2', 'right']",1,Professional,2.0.10.356,2.0.10.356,06/25/2018,17:32:25,Stimuli/,2.0.10.252,0,1,0,160,['space'],1,2-Back,,,,,,,,,,,,,,,,500.0,414926.0,414926.0,414426.0,414426.0,,,,,,0.0,No Match,2000.0,414426.0,414426.0,412436.0,,0,0.0,412436.0,NegFace,16F_FO.bmp,nonlure
Emo_Nback_20180527,1,Behavioral,"['1', 'num_1', 'left', '2', 'num_2', 'right']",0,0,0,Emo_Nback_20180527_v1-ABCD1234,1.0.0.1180,Verdana,1,Right,60.0506542241,ABCD1234,"['2', 'num_2', 'right']",1,Professional,2.0.10.356,2.0.10.356,06/25/2018,17:32:25,Stimuli/,2.0.10.252,0,1,0,160,['space'],1,2-Back,,,,,,,,,,,,,,,,500.0,417425.0,417425.0,416925.0,416925.0,,,,,,0.0,No Match,2000.0,416925.0,416925.0,414935.0,,0,0.0,414934.0,NegFace,1F_FO.bmp,nonlure
Emo_Nback_20180527,1,Behavioral,"['1', 'num_1', 'left', '2', 'num_2', 'right']",0,0,0,Emo_Nback_20180527_v1-ABCD1234,1.0.0.1180,Verdana,1,Right,60.0506542241,ABCD1234,"['2', 'num_2', 'right']",1,Professional,2.0.10.356,2.0.10.356,06/25/2018,17:32:25,Stimuli/,2.0.10.252,0,1,0,160,['space'],1,2-Back,,,,,,,,,,,,,,,,500.0,419925.0,419925.0,419425.0,419425.0,,,,,,0.0,No Match,2000.0,419425.0,419425.0,417432.0,,0,0.0,417432.0,NegFace,BM023_FO.bmp,nonlure
Emo_Nback_20180527,1,Behavioral,"['1', 'num_1', 'left', '2', 'num_2', 'right']",0,0,0,Emo_Nback_20180527_v1-ABCD1234,1.0.0.1180,Verdana,1,Right,60.0506542241,ABCD1234,"['2', 'num_2', 'right']",1,Professional,2.0.10.356,2.0.10.356,06/25/2018,17:32:25,Stimuli/,2.0.10.252,0,1,0,160,['space'],1,2-Back,,,,,,,,,,,,,,,,500.0,422426.0,422426.0,421926.0,421926.0,,,,,,0.0,No Match,2000.0,421926.0,421926.0,419929.0,,0,0.0,419929.0,NegFace,16F_FO.bmp,lure
Emo_Nback_20180527,1,Behavioral,"['1', 'num_1', 'left', '2', 'num_2', 'right']",0,0,0,Emo_Nback_20180527_v1-ABCD1234,1.0.0.1180,Verdana,1,Right,60.0506542241,ABCD1234,"['2', 'num_2', 'right']",1,Professional,2.0.10.356,2.0.10.356,06/25/2018,17:32:25,Stimuli/,2.0.10.252,0,1,0,160,['space'],1,2-Back,,,,,,,,,,,,,,,,500.0,424925.0,424925.0,424431.0,424431.0,,,,,,0.0,Match,2000.0,424431.0,424431.0,422429.0,,0,0.0,422429.0,NegFace,BM023_FO.bmp,target
Emo_Nback_20180527,1,Behavioral,"['1', 'num_1', 'left', '2', 'num_2', 'right']",0,0,0,Emo_Nback_20180527_v1-ABCD1234,1.0.0.1180,Verdana,1,Right,60.0506542241,ABCD1234,"['2', 'num_2', 'right']",1,Professional,2.0.10.356,2.0.10.356,06/25/2018,17:32:25,Stimuli/,2.0.10.252,0,1,0,160,['space'],1,2-Back,,,,,,,,,,,,,,,,500.0,427425.0,427424.0,426925.0,426925.0,,,,,,0.0,No Match,2000.0,426925.0,426925.0,424931.0,,0,0.0,424931.0,NegFace,3F_FO.bmp,nonlure
Emo_Nback_20180527,1,Behavioral,"['1', 'num_1', 'left', '2', 'num_2', 'right']",0,0,0,Emo_Nback_20180527_v1-ABCD1234,1.0.0.1180,Verdana,1,Right,60.0506542241,ABCD1234,"['2', 'num_2', 'right']",1,Professional,2.0.10.356,2.0.10.356,06/25/2018,17:32:25,Stimuli/,2.0.10.252,0,1,0,160,['space'],1,2-Back,,,,,,,,,,,,,,,,500.0,429926.0,429926.0,429425.0,429425.0,,,,,,0.0,No Match,2000.0,429425.0,429425.0,427432.0,,0,0.0,427431.0,NegFace,AM05_FO.bmp,nonlure
Emo_Nback_20180527,1,Behavioral,"['1', 'num_1', 'left', '2', 'num_2', 'right']",0,0,0,Emo_Nback_20180527_v1-ABCD1234,1.0.0.1180,Verdana,1,Right,60.0506542241,ABCD1234,"['2', 'num_2', 'right']",1,Professional,2.0.10.356,2.0.10.356,06/25/2018,17:32:25,Stimuli/,2.0.10.252,0,1,0,160,['space'],1,2-Back,,,,,,,,,,,,,,,,500.0,432425.0,432425.0,431926.0,431926.0,,,,,,0.0,Match,2000.0,431926.0,431926.0,429930.0,,0,0.0,429929.0,NegFace,3F_FO.bmp,target
Emo_Nback_20180527,1,Behavioral,"['1', 'num_1', 'left', '2', 'num_2', 'right']",0,0,0,Emo_Nback_20180527_v1-ABCD1234,1.0.0.1180,Verdana,1,Right,60.0506542241,ABCD1234,"['2', 'num_2', 'right']",1,Professional,2.0.10.356,2.0.10.356,06/25/2018,17:32:25,Stimuli/,2.0.10.252,0,1,0,160,['space'],1,2-Back,,,,,,,,,,,,,,,,500.0,434926.0,434926.0,434425.0,434425.0,,,,,,0.0,No Match,2000.0,434425.0,434425.0,432431.0,,0,0.0,432431.0,NegFace,WM003_FO.bmp,nonlure
Emo_Nback_20180527,1,Behavioral,"['1', 'num_1', 'left', '2', 'num_2', 'right']",0,0,0,Emo_Nback_20180527_v1-ABCD1234,1.0.0.1180,Verdana,1,Right,60.0506542241,ABCD1234,"['2', 'num_2', 'right']",1,Professional,2.0.10.356,2.0.10.356,06/25/2018,17:32:25,Stimuli/,2.0.10.252,0,1,0,160,['space'],1,2-Back,,,,,,,,,,,,,,,,500.0,437425.0,437425.0,436925.0,436925.0,,,,,,0.0,No Match,2000.0,436925.0,436925.0,434929.0,,0,0.0,434929.0,NegFace,AM05_FO.bmp,lure
Emo_Nback_20180527,1,Behavioral,"['1', 'num_1', 'left', '2', 'num_2', 'right']",0,0,0,Emo_Nback_20180527_v1-ABCD1234,1.0.0.1180,Verdana,1,Right,60.0506542241,ABCD1234,"['2', 'num_2', 'right']",1,Professional,2.0.10.356,2.0.10.356,06/25/2018,17:32:25,Stimuli/,2.0.10.252,0,1,0,160,['space'],2,Cue0Back,,,,,,500.0,437925.0,437925.0,437431.0,437431.0,2500.0,440426.0,440426.0,437925.0,437925.0,,,,,,,,,,,,,,,,,,0,,,Faces,19F_HO.bmp,target
Emo_Nback_20180527,1,Behavioral,"['1', 'num_1', 'left', '2', 'num_2', 'right']",0,0,0,Emo_Nback_20180527_v1-ABCD1234,1.0.0.1180,Verdana,1,Right,60.0506542241,ABCD1234,"['2', 'num_2', 'right']",1,Professional,2.0.10.356,2.0.10.356,06/25/2018,17:32:25,Stimuli/,2.0.10.252,0,1,0,160,['space'],2,0-Back,,,,,,,,,,,,,,,,500.0,442925.0,442925.0,442427.0,442427.0,,,,,,0.0,No Match,2000.0,442427.0,442427.0,440434.0,,0,0.0,440434.0,PosFace,32M_HO.bmp,nonlure
Emo_Nback_20180527,1,Behavioral,"['1', 'num_1', 'left', '2', 'num_2', 'right']",0,0,0,Emo_Nback_20180527_v1-ABCD1234,1.0.0.1180,Verdana,1,Right,60.0506542241,ABCD1234,"['2', 'num_2', 'right']",1,Professional,2.0.10.356,2.0.10.356,06/25/2018,17:32:25,Stimuli/,2.0.10.252,0,1,0,160,['space'],2,0-Back,,,,,,,,,,,,,,,,500.0,445425.0,445425.0,444927.0,444927.0,,,,,,0.0,No Match,2000.0,444927.0,444927.0,442932.0,,0,0.0,442932.0,PosFace,BF016_HO.bmp,nonlure
Emo_Nback_20180527,1,Behavioral,"['1', 'num_1', 'left', '2', 'num_2', 'right']",0,0,0,Emo_Nback_20180527_v1-ABCD1234,1.0.0.1180,Verdana,1,Right,60.0506542241,ABCD1234,"['2', 'num_2', 'right']",1,Professional,2.0.10.356,2.0.10.356,06/25/2018,17:32:25,Stimuli/,2.0.10.252,0,1,0,160,['space'],2,0-Back,,,,,,,,,,,,,,,,500.0,447925.0,447925.0,447426.0,447426.0,,,,,,0.0,No Match,2000.0,447426.0,447426.0,445431.0,,0,0.0,445431.0,PosFace,BM06_HO.bmp,nonlure
Emo_Nback_20180527,1,Behavioral,"['1', 'num_1', 'left', '2', 'num_2', 'right']",0,0,0,Emo_Nback_20180527_v1-ABCD1234,1.0.0.1180,Verdana,1,Right,60.0506542241,ABCD1234,"['2', 'num_2', 'right']",1,Professional,2.0.10.356,2.0.10.356,06/25/2018,17:32:25,Stimuli/,2.0.10.252,0,1,0,160,['space'],2,0-Back,,,,,,,,,,,,,,,,500.0,450425.0,450425.0,449925.0,449925.0,,,,,,0.0,No Match,2000.0,449925.0,449925.0,447929.0,,0,0.0,447928.0,PosFace,BF016_HO.bmp,lure
Emo_Nback_20180527,1,Behavioral,"['1', 'num_1', 'left', '2', 'num_2', 'right']",0,0,0,Emo_Nback_20180527_v1-ABCD1234,1.0.0.1180,Verdana,1,Right,60.0506542241,ABCD1234,"['2', 'num_2', 'right']",1,Professional,2.0.10.356,2.0.10.356,06/25/2018,17:32:25,Stimuli/,2.0.10.252,0,1,0,160,['space'],2,0-Back,,,,,,,,,,,,,,,,500.0,452925.0,452925.0,452426.0,452425.0,,,,,,0.0,Match,2000.0,452425.0,452425.0,450430.0,,0,0.0,450430.0,PosFace,19F_HO.bmp,target
Emo_Nback_20180527,1,Behavioral,"['1', 'num_1', 'left', '2', 'num_2', 'right']",0,0,0,Emo_Nback_20180527_v1-ABCD1234,1.0.0.1180,Verdana,1,Right,60.0506542241,ABCD1234,"['2', 'num_2', 'right']",1,Professional,2.0.10.356,2.0.10.356,06/25/2018,17:32:25,Stimuli/,2.0.10.252,0,1,0,160,['space'],2,0-Back,,,,,,,,,,,,,,,,500.0,455425.0,455425.0,454926.0,454926.0,,,,,,0.0,No Match,2000.0,454926.0,454926.0,452929.0,,0,0.0,452929.0,PosFace,32M_HO.bmp,lure
Emo_Nback_20180527,1,Behavioral,"['1', 'num_1', 'left', '2', 'num_2', 'right']",0,0,0,Emo_Nback_20180527_v1-ABCD1234,1.0.0.1180,Verdana,1,Right,60.0506542241,ABCD1234,"['2', 'num_2', 'right']",1,Professional,2.0.10.356,2.0.10.356,06/25/2018,17:32:25,Stimuli/,2.0.10.252,0,1,0,160,['space'],2,0-Back,,,,,,,,,,,,,,,,500.0,457925.0,457925.0,457426.0,457426.0,,,,,,0.0,No Match,2000.0,457426.0,457426.0,455432.0,,0,0.0,455431.0,PosFace,20M_HO.bmp,nonlure
Emo_Nback_20180527,1,Behavioral,"['1', 'num_1', 'left', '2', 'num_2', 'right']",0,0,0,Emo_Nback_20180527_v1-ABCD1234,1.0.0.1180,Verdana,1,Right,60.0506542241,ABCD1234,"['2', 'num_2', 'right']",1,Professional,2.0.10.356,2.0.10.356,06/25/2018,17:32:25,Stimuli/,2.0.10.252,0,1,0,160,['space'],2,0-Back,,,,,,,,,,,,,,,,500.0,460426.0,460426.0,459926.0,459925.0,,,,,,0.0,Match,2000.0,459925.0,459925.0,457929.0,,0,0.0,457928.0,PosFace,19F_HO.bmp,target
Emo_Nback_20180527,1,Behavioral,"['1', 'num_1', 'left', '2', 'num_2', 'right']",0,0,0,Emo_Nback_20180527_v1-ABCD1234,1.0.0.1180,Verdana,1,Right,60.0506542241,ABCD1234,"['2', 'num_2', 'right']",1,Professional,2.0.10.356,2.0.10.356,06/25/2018,17:32:25,Stimuli/,2.0.10.252,0,1,0,160,['space'],2,0-Back,,,,,,,,,,,,,,,,500.0,462925.0,462925.0,462425.0,462425.0,,,,,,0.0,No Match,2000.0,462425.0,462425.0,460432.0,,0,0.0,460432.0,PosFace,WF007_HO.bmp,nonlure
Emo_Nback_20180527,1,Behavioral,"['1', 'num_1', 'left', '2', 'num_2', 'right']",0,0,0,Emo_Nback_20180527_v1-ABCD1234,1.0.0.1180,Verdana,1,Right,60.0506542241,ABCD1234,"['2', 'num_2', 'right']",1,Professional,2.0.10.356,2.0.10.356,06/25/2018,17:32:25,Stimuli/,2.0.10.252,0,1,0,160,['space'],2,0-Back,,,,,,,,,,,,,,,,500.0,465426.0,465426.0,464925.0,464925.0,,,,,,0.0,No Match,2000.0,464925.0,464925.0,462929.0,,0,0.0,462929.0,PosFace,BM06_HO.bmp,lure
Emo_Nback_20180527,1,Behavioral,"['1', 'num_1', 'left', '2', 'num_2', 'right']",0,0,0,Emo_Nback_20180527_v1-ABCD1234,1.0.0.1180,Verdana,1,Right,60.0506542241,ABCD1234,"['2', 'num_2', 'right']",1,Professional,2.0.10.356,2.0.10.356,06/25/2018,17:32:25,Stimuli/,2.0.10.252,0,1,0,160,['space'],None,Fix15secPROC,,,,,,,,,,,,,,,,,,,,,15000.0,480435.0,480435.0,465427.0,465427.0,,,,,,,,0,,,None,None,None
Emo_Nback_20180527,1,Behavioral,"['1', 'num_1', 'left', '2', 'num_2', 'right']",0,0,0,Emo_Nback_20180527_v1-ABCD1234,1.0.0.1180,Verdana,1,Right,60.0506542241,ABCD1234,"['2', 'num_2', 'right']",1,Professional,2.0.10.356,2.0.10.356,06/25/2018,17:32:25,Stimuli/,2.0.10.252,0,1,0,160,['space'],None,Cue2Back,2500.0,483435.0,483435.0,480935.0,480935.0,500.0,480935.0,480935.0,480440.0,480440.0,,,,,,,,,,,,,,,,,,,,,,,0,,,Faces,None,None
Emo_Nback_20180527,1,Behavioral,"['1', 'num_1', 'left', '2', 'num_2', 'right']",0,0,0,Emo_Nback_20180527_v1-ABCD1234,1.0.0.1180,Verdana,1,Right,60.0506542241,ABCD1234,"['2', 'num_2', 'right']",1,Professional,2.0.10.356,2.0.10.356,06/25/2018,17:32:25,Stimuli/,2.0.10.252,0,1,0,160,['space'],3,2-Back,,,,,,,,,,,,,,,,500.0,485938.0,485938.0,485437.0,485437.0,,,,,,0.0,No Match,2000.0,485437.0,485437.0,483444.0,,0,0.0,483444.0,NeutFace,LM211_NC.bmp,nonlure
Emo_Nback_20180527,1,Behavioral,"['1', 'num_1', 'left', '2', 'num_2', 'right']",0,0,0,Emo_Nback_20180527_v1-ABCD1234,1.0.0.1180,Verdana,1,Right,60.0506542241,ABCD1234,"['2', 'num_2', 'right']",1,Professional,2.0.10.356,2.0.10.356,06/25/2018,17:32:25,Stimuli/,2.0.10.252,0,1,0,160,['space'],3,2-Back,,,,,,,,,,,,,,,,500.0,488441.0,488441.0,487935.0,487935.0,,,,,,0.0,No Match,2000.0,487935.0,487935.0,485946.0,,0,0.0,485945.0,NeutFace,AF216_NC.bmp,nonlure
Emo_Nback_20180527,1,Behavioral,"['1', 'num_1', 'left', '2', 'num_2', 'right']",0,0,0,Emo_Nback_20180527_v1-ABCD1234,1.0.0.1180,Verdana,1,Right,60.0506542241,ABCD1234,"['2', 'num_2', 'right']",1,Professional,2.0.10.356,2.0.10.356,06/25/2018,17:32:25,Stimuli/,2.0.10.252,0,1,0,160,['space'],3,2-Back,,,,,,,,,,,,,,,,500.0,490936.0,490936.0,490436.0,490436.0,,,,,,0.0,No Match,2000.0,490436.0,490436.0,488445.0,,0,0.0,488445.0,NeutFace,AF216_NC.bmp,lure
Emo_Nback_20180527,1,Behavioral,"['1', 'num_1', 'left', '2', 'num_2', 'right']",0,0,0,Emo_Nback_20180527_v1-ABCD1234,1.0.0.1180,Verdana,1,Right,60.0506542241,ABCD1234,"['2', 'num_2', 'right']",1,Professional,2.0.10.356,2.0.10.356,06/25/2018,17:32:25,Stimuli/,2.0.10.252,0,1,0,160,['space'],3,2-Back,,,,,,,,,,,,,,,,500.0,493439.0,493439.0,492938.0,492938.0,,,,,,0.0,No Match,2000.0,492938.0,492938.0,490943.0,,0,0.0,490942.0,NeutFace,WM04_NC.bmp,nonlure
Emo_Nback_20180527,1,Behavioral,"['1', 'num_1', 'left', '2', 'num_2', 'right']",0,0,0,Emo_Nback_20180527_v1-ABCD1234,1.0.0.1180,Verdana,1,Right,60.0506542241,ABCD1234,"['2', 'num_2', 'right']",1,Professional,2.0.10.356,2.0.10.356,06/25/2018,17:32:25,Stimuli/,2.0.10.252,0,1,0,160,['space'],3,2-Back,,,,,,,,,,,,,,,,500.0,495942.0,495942.0,495440.0,495440.0,,,,,,0.0,No Match,2000.0,495440.0,495440.0,493443.0,,0,0.0,493443.0,NeutFace,WM04_NC.bmp,lure
Emo_Nback_20180527,1,Behavioral,"['1', 'num_1', 'left', '2', 'num_2', 'right']",0,0,0,Emo_Nback_20180527_v1-ABCD1234,1.0.0.1180,Verdana,1,Right,60.0506542241,ABCD1234,"['2', 'num_2', 'right']",1,Professional,2.0.10.356,2.0.10.356,06/25/2018,17:32:25,Stimuli/,2.0.10.252,0,1,0,160,['space'],3,2-Back,,,,,,,,,,,,,,,,500.0,498439.0,498439.0,497939.0,497938.0,,,,,,0.0,No Match,2000.0,497938.0,497938.0,495948.0,,0,0.0,495948.0,NeutFace,14F_NC.bmp,nonlure
Emo_Nback_20180527,1,Behavioral,"['1', 'num_1', 'left', '2', 'num_2', 'right']",0,0,0,Emo_Nback_20180527_v1-ABCD1234,1.0.0.1180,Verdana,1,Right,60.0506542241,ABCD1234,"['2', 'num_2', 'right']",1,Professional,2.0.10.356,2.0.10.356,06/25/2018,17:32:25,Stimuli/,2.0.10.252,0,1,0,160,['space'],3,2-Back,,,,,,,,,,,,,,,,500.0,500937.0,500937.0,500438.0,500438.0,,,,,,0.0,No Match,2000.0,500438.0,500438.0,498446.0,,0,0.0,498446.0,NeutFace,AM210_NC.bmp,nonlure
Emo_Nback_20180527,1,Behavioral,"['1', 'num_1', 'left', '2', 'num_2', 'right']",0,0,0,Emo_Nback_20180527_v1-ABCD1234,1.0.0.1180,Verdana,1,Right,60.0506542241,ABCD1234,"['2', 'num_2', 'right']",1,Professional,2.0.10.356,2.0.10.356,06/25/2018,17:32:25,Stimuli/,2.0.10.252,0,1,0,160,['space'],3,2-Back,,,,,,,,,,,,,,,,500.0,503438.0,503438.0,502938.0,502938.0,,,,,,0.0,No Match,2000.0,502938.0,502938.0,500947.0,,0,0.0,500946.0,NeutFace,WF02_NC.bmp,nonlure
Emo_Nback_20180527,1,Behavioral,"['1', 'num_1', 'left', '2', 'num_2', 'right']",0,0,0,Emo_Nback_20180527_v1-ABCD1234,1.0.0.1180,Verdana,1,Right,60.0506542241,ABCD1234,"['2', 'num_2', 'right']",1,Professional,2.0.10.356,2.0.10.356,06/25/2018,17:32:25,Stimuli/,2.0.10.252,0,1,0,160,['space'],3,2-Back,,,,,,,,,,,,,,,,500.0,505938.0,505938.0,505438.0,505438.0,,,,,,0.0,Match,2000.0,505438.0,505438.0,503443.0,,0,0.0,503443.0,NeutFace,AM210_NC.bmp,target
Emo_Nback_20180527,1,Behavioral,"['1', 'num_1', 'left', '2', 'num_2', 'right']",0,0,0,Emo_Nback_20180527_v1-ABCD1234,1.0.0.1180,Verdana,1,Right,60.0506542241,ABCD1234,"['2', 'num_2', 'right']",1,Professional,2.0.10.356,2.0.10.356,06/25/2018,17:32:25,Stimuli/,2.0.10.252,0,1,0,160,['space'],3,2-Back,,,,,,,,,,,,,,,,500.0,508440.0,508440.0,507940.0,507940.0,,,,,,0.0,Match,2000.0,507940.0,507940.0,505944.0,,0,0.0,505944.0,NeutFace,WF02_NC.bmp,target
Emo_Nback_20180527,1,Behavioral,"['1', 'num_1', 'left', '2', 'num_2', 'right']",0,0,0,Emo_Nback_20180527_v1-ABCD1234,1.0.0.1180,Verdana,1,Right,60.0506542241,ABCD1234,"['2', 'num_2', 'right']",1,Professional,2.0.10.356,2.0.10.356,06/25/2018,17:32:25,Stimuli/,2.0.10.252,0,1,0,160,['space'],None,Cue0Back,,,,,,500.0,508941.0,508941.0,508447.0,508447.0,2500.0,511439.0,511439.0,508942.0,508941.0,,,,,,,,,,,,,,,,,,0,,,Faces,BF10_FO.bmp,target
Emo_Nback_20180527,1,Behavioral,"['1', 'num_1', 'left', '2', 'num_2', 'right']",0,0,0,Emo_Nback_20180527_v1-ABCD1234,1.0.0.1180,Verdana,1,Right,60.0506542241,ABCD1234,"['2', 'num_2', 'right']",1,Professional,2.0.10.356,2.0.10.356,06/25/2018,17:32:25,Stimuli/,2.0.10.252,0,1,0,160,['space'],4,0-Back,,,,,,,,,,,,,,,,500.0,513929.0,513929.0,513440.0,513440.0,,,,,,0.0,Match,2000.0,513440.0,513440.0,511444.0,,0,0.0,511444.0,NegFace,BF10_FO.bmp,target
Emo_Nback_20180527,1,Behavioral,"['1', 'num_1', 'left', '2', 'num_2', 'right']",0,0,0,Emo_Nback_20180527_v1-ABCD1234,1.0.0.1180,Verdana,1,Right,60.0506542241,ABCD1234,"['2', 'num_2', 'right']",1,Professional,2.0.10.356,2.0.10.356,06/25/2018,17:32:25,Stimuli/,2.0.10.252,0,1,0,160,['space'],4,0-Back,,,,,,,,,,,,,,,,500.0,516428.0,516428.0,515940.0,515940.0,,,,,,0.0,No Match,2000.0,515940.0,515940.0,513936.0,,0,0.0,513936.0,NegFace,5F_FO.bmp,nonlure
Emo_Nback_20180527,1,Behavioral,"['1', 'num_1', 'left', '2', 'num_2', 'right']",0,0,0,Emo_Nback_20180527_v1-ABCD1234,1.0.0.1180,Verdana,1,Right,60.0506542241,ABCD1234,"['2', 'num_2', 'right']",1,Professional,2.0.10.356,2.0.10.356,06/25/2018,17:32:25,Stimuli/,2.0.10.252,0,1,0,160,['space'],4,0-Back,,,,,,,,,,,,,,,,500.0,518941.0,518941.0,518429.0,518429.0,,,,,,0.0,Match,2000.0,518429.0,518429.0,516432.0,,0,0.0,516431.0,NegFace,BF10_FO.bmp,target
Emo_Nback_20180527,1,Behavioral,"['1', 'num_1', 'left', '2', 'num_2', 'right']",0,0,0,Emo_Nback_20180527_v1-ABCD1234,1.0.0.1180,Verdana,1,Right,60.0506542241,ABCD1234,"['2', 'num_2', 'right']",1,Professional,2.0.10.356,2.0.10.356,06/25/2018,17:32:25,Stimuli/,2.0.10.252,0,1,0,160,['space'],4,0-Back,,,,,,,,,,,,,,,,500.0,521426.0,521426.0,520925.0,520925.0,,,,,,0.0,No Match,2000.0,520925.0,520925.0,518949.0,,0,0.0,518948.0,NegFace,33M_FO.bmp,nonlure
Emo_Nback_20180527,1,Behavioral,"['1', 'num_1', 'left', '2', 'num_2', 'right']",0,0,0,Emo_Nback_20180527_v1-ABCD1234,1.0.0.1180,Verdana,1,Right,60.0506542241,ABCD1234,"['2', 'num_2', 'right']",1,Professional,2.0.10.356,2.0.10.356,06/25/2018,17:32:25,Stimuli/,2.0.10.252,0,1,0,160,['space'],4,0-Back,,,,,,,,,,,,,,,,500.0,523925.0,523925.0,523425.0,523425.0,,,,,,0.0,No Match,2000.0,523425.0,523425.0,521432.0,,0,0.0,521432.0,NegFace,43M_FO.bmp,nonlure
Emo_Nback_20180527,1,Behavioral,"['1', 'num_1', 'left', '2', 'num_2', 'right']",0,0,0,Emo_Nback_20180527_v1-ABCD1234,1.0.0.1180,Verdana,1,Right,60.0506542241,ABCD1234,"['2', 'num_2', 'right']",1,Professional,2.0.10.356,2.0.10.356,06/25/2018,17:32:25,Stimuli/,2.0.10.252,0,1,0,160,['space'],4,0-Back,,,,,,,,,,,,,,,,500.0,526433.0,526433.0,525942.0,525942.0,,,,,,0.0,No Match,2000.0,525942.0,525942.0,523929.0,,0,0.0,523929.0,NegFace,43M_FO.bmp,lure
Emo_Nback_20180527,1,Behavioral,"['1', 'num_1', 'left', '2', 'num_2', 'right']",0,0,0,Emo_Nback_20180527_v1-ABCD1234,1.0.0.1180,Verdana,1,Right,60.0506542241,ABCD1234,"['2', 'num_2', 'right']",1,Professional,2.0.10.356,2.0.10.356,06/25/2018,17:32:25,Stimuli/,2.0.10.252,0,1,0,160,['space'],4,0-Back,,,,,,,,,,,,,,,,500.0,528942.0,528942.0,528425.0,528425.0,,,,,,0.0,No Match,2000.0,528425.0,528425.0,526440.0,,0,0.0,526440.0,NegFace,WF034_FO.bmp,nonlure
Emo_Nback_20180527,1,Behavioral,"['1', 'num_1', 'left', '2', 'num_2', 'right']",0,0,0,Emo_Nback_20180527_v1-ABCD1234,1.0.0.1180,Verdana,1,Right,60.0506542241,ABCD1234,"['2', 'num_2', 'right']",1,Professional,2.0.10.356,2.0.10.356,06/25/2018,17:32:25,Stimuli/,2.0.10.252,0,1,0,160,['space'],4,0-Back,,,,,,,,,,,,,,,,500.0,531426.0,531426.0,530925.0,530925.0,,,,,,0.0,No Match,2000.0,530925.0,530925.0,528947.0,,0,0.0,528947.0,NegFace,WF034_FO.bmp,lure
Emo_Nback_20180527,1,Behavioral,"['1', 'num_1', 'left', '2', 'num_2', 'right']",0,0,0,Emo_Nback_20180527_v1-ABCD1234,1.0.0.1180,Verdana,1,Right,60.0506542241,ABCD1234,"['2', 'num_2', 'right']",1,Professional,2.0.10.356,2.0.10.356,06/25/2018,17:32:25,Stimuli/,2.0.10.252,0,1,0,160,['space'],4,0-Back,,,,,,,,,,,,,,,,500.0,533927.0,533927.0,533427.0,533427.0,,,,,,0.0,No Match,2000.0,533427.0,533427.0,531434.0,,0,0.0,531434.0,NegFace,BM05_FO.bmp,nonlure
Emo_Nback_20180527,1,Behavioral,"['1', 'num_1', 'left', '2', 'num_2', 'right']",0,0,0,Emo_Nback_20180527_v1-ABCD1234,1.0.0.1180,Verdana,1,Right,60.0506542241,ABCD1234,"['2', 'num_2', 'right']",1,Professional,2.0.10.356,2.0.10.356,06/25/2018,17:32:25,Stimuli/,2.0.10.252,0,1,0,160,['space'],4,0-Back,,,,,,,,,,,,,,,,500.0,536428.0,536427.0,535926.0,535926.0,,,,,,0.0,No Match,2000.0,535926.0,535926.0,533931.0,,0,0.0,533931.0,NegFace,BM05_FO.bmp,lure
Emo_Nback_20180527,1,Behavioral,"['1', 'num_1', 'left', '2', 'num_2', 'right']",0,0,0,Emo_Nback_20180527_v1-ABCD1234,1.0.0.1180,Verdana,1,Right,60.0506542241,ABCD1234,"['2', 'num_2', 'right']",1,Professional,2.0.10.356,2.0.10.356,06/25/2018,17:32:25,Stimuli/,2.0.10.252,0,1,0,160,['space'],None,Fix15secPROC,,,,,,,,,,,,,,,,,,,,,15000.0,551433.0,551433.0,536430.0,536430.0,,,,,,,,0,,,None,None,None
Emo_Nback_20180527,1,Behavioral,"['1', 'num_1', 'left', '2', 'num_2', 'right']",0,0,0,Emo_Nback_20180527_v1-ABCD1234,1.0.0.1180,Verdana,1,Right,60.0506542241,ABCD1234,"['2', 'num_2', 'right']",1,Professional,2.0.10.356,2.0.10.356,06/25/2018,17:32:25,Stimuli/,2.0.10.252,0,1,0,160,['space'],None,Cue2Back,2500.0,554428.0,554428.0,551928.0,551928.0,500.0,551928.0,551928.0,551437.0,551437.0,,,,,,,,,,,,,,,,,,,,,,,0,,,Faces,None,None
Emo_Nback_20180527,1,Behavioral,"['1', 'num_1', 'left', '2', 'num_2', 'right']",0,0,0,Emo_Nback_20180527_v1-ABCD1234,1.0.0.1180,Verdana,1,Right,60.0506542241,ABCD1234,"['2', 'num_2', 'right']",1,Professional,2.0.10.356,2.0.10.356,06/25/2018,17:32:25,Stimuli/,2.0.10.252,0,1,0,160,['space'],5,2-Back,,,,,,,,,,,,,,,,500.0,556929.0,556929.0,556428.0,556428.0,,,,,,0.0,No Match,2000.0,556428.0,556428.0,554437.0,,0,0.0,554436.0,PosFace,13F_HO.bmp,nonlure
Emo_Nback_20180527,1,Behavioral,"['1', 'num_1', 'left', '2', 'num_2', 'right']",0,0,0,Emo_Nback_20180527_v1-ABCD1234,1.0.0.1180,Verdana,1,Right,60.0506542241,ABCD1234,"['2', 'num_2', 'right']",1,Professional,2.0.10.356,2.0.10.356,06/25/2018,17:32:25,Stimuli/,2.0.10.252,0,1,0,160,['space'],5,2-Back,,,,,,,,,,,,,,,,500.0,559429.0,559429.0,558941.0,558941.0,,,,,,0.0,No Match,2000.0,558941.0,558941.0,556936.0,,0,0.0,556936.0,PosFace,29M_HO.bmp,nonlure
Emo_Nback_20180527,1,Behavioral,"['1', 'num_1', 'left', '2', 'num_2', 'right']",0,0,0,Emo_Nback_20180527_v1-ABCD1234,1.0.0.1180,Verdana,1,Right,60.0506542241,ABCD1234,"['2', 'num_2', 'right']",1,Professional,2.0.10.356,2.0.10.356,06/25/2018,17:32:25,Stimuli/,2.0.10.252,0,1,0,160,['space'],5,2-Back,,,,,,,,,,,,,,,,500.0,561929.0,561929.0,561429.0,561429.0,,,,,,0.0,Match,2000.0,561429.0,561429.0,559433.0,,0,0.0,559433.0,PosFace,13F_HO.bmp,target
Emo_Nback_20180527,1,Behavioral,"['1', 'num_1', 'left', '2', 'num_2', 'right']",0,0,0,Emo_Nback_20180527_v1-ABCD1234,1.0.0.1180,Verdana,1,Right,60.0506542241,ABCD1234,"['2', 'num_2', 'right']",1,Professional,2.0.10.356,2.0.10.356,06/25/2018,17:32:25,Stimuli/,2.0.10.252,0,1,0,160,['space'],5,2-Back,,,,,,,,,,,,,,,,500.0,564431.0,564431.0,563930.0,563930.0,,,,,,0.0,Match,2000.0,563930.0,563930.0,561934.0,,0,0.0,561934.0,PosFace,29M_HO.bmp,target
Emo_Nback_20180527,1,Behavioral,"['1', 'num_1', 'left', '2', 'num_2', 'right']",0,0,0,Emo_Nback_20180527_v1-ABCD1234,1.0.0.1180,Verdana,1,Right,60.0506542241,ABCD1234,"['2', 'num_2', 'right']",1,Professional,2.0.10.356,2.0.10.356,06/25/2018,17:32:25,Stimuli/,2.0.10.252,0,1,0,160,['space'],5,2-Back,,,,,,,,,,,,,,,,500.0,566932.0,566932.0,566430.0,566430.0,,,,,,0.0,No Match,2000.0,566430.0,566430.0,564439.0,,0,0.0,564438.0,PosFace,HF02_HO.bmp,nonlure
Emo_Nback_20180527,1,Behavioral,"['1', 'num_1', 'left', '2', 'num_2', 'right']",0,0,0,Emo_Nback_20180527_v1-ABCD1234,1.0.0.1180,Verdana,1,Right,60.0506542241,ABCD1234,"['2', 'num_2', 'right']",1,Professional,2.0.10.356,2.0.10.356,06/25/2018,17:32:25,Stimuli/,2.0.10.252,0,1,0,160,['space'],5,2-Back,,,,,,,,,,,,,,,,500.0,569431.0,569431.0,568931.0,568931.0,,,,,,0.0,No Match,2000.0,568931.0,568930.0,566937.0,,0,0.0,566937.0,PosFace,HF02_HO.bmp,lure
Emo_Nback_20180527,1,Behavioral,"['1', 'num_1', 'left', '2', 'num_2', 'right']",0,0,0,Emo_Nback_20180527_v1-ABCD1234,1.0.0.1180,Verdana,1,Right,60.0506542241,ABCD1234,"['2', 'num_2', 'right']",1,Professional,2.0.10.356,2.0.10.356,06/25/2018,17:32:25,Stimuli/,2.0.10.252,0,1,0,160,['space'],5,2-Back,,,,,,,,,,,,,,,,500.0,571931.0,571931.0,571431.0,571431.0,,,,,,0.0,No Match,2000.0,571431.0,571431.0,569440.0,,0,0.0,569439.0,PosFace,WM01_HO.bmp,nonlure
Emo_Nback_20180527,1,Behavioral,"['1', 'num_1', 'left', '2', 'num_2', 'right']",0,0,0,Emo_Nback_20180527_v1-ABCD1234,1.0.0.1180,Verdana,1,Right,60.0506542241,ABCD1234,"['2', 'num_2', 'right']",1,Professional,2.0.10.356,2.0.10.356,06/25/2018,17:32:25,Stimuli/,2.0.10.252,0,1,0,160,['space'],5,2-Back,,,,,,,,,,,,,,,,500.0,574432.0,574432.0,573933.0,573933.0,,,,,,0.0,No Match,2000.0,573933.0,573933.0,571939.0,,0,0.0,571939.0,PosFace,WF03_HO.bmp,nonlure
Emo_Nback_20180527,1,Behavioral,"['1', 'num_1', 'left', '2', 'num_2', 'right']",0,0,0,Emo_Nback_20180527_v1-ABCD1234,1.0.0.1180,Verdana,1,Right,60.0506542241,ABCD1234,"['2', 'num_2', 'right']",1,Professional,2.0.10.356,2.0.10.356,06/25/2018,17:32:25,Stimuli/,2.0.10.252,0,1,0,160,['space'],5,2-Back,,,,,,,,,,,,,,,,500.0,576933.0,576933.0,576432.0,576432.0,,,,,,0.0,No Match,2000.0,576432.0,576432.0,574440.0,,0,0.0,574440.0,PosFace,BM026_HO.bmp,nonlure
Emo_Nback_20180527,1,Behavioral,"['1', 'num_1', 'left', '2', 'num_2', 'right']",0,0,0,Emo_Nback_20180527_v1-ABCD1234,1.0.0.1180,Verdana,1,Right,60.0506542241,ABCD1234,"['2', 'num_2', 'right']",1,Professional,2.0.10.356,2.0.10.356,06/25/2018,17:32:25,Stimuli/,2.0.10.252,0,1,0,160,['space'],5,2-Back,,,,,,,,,,,,,,,,500.0,579432.0,579432.0,578934.0,578934.0,,,,,,0.0,No Match,2000.0,578934.0,578934.0,576937.0,,0,0.0,576937.0,PosFace,BM026_HO.bmp,lure
Emo_Nback_20180527,1,Behavioral,"['1', 'num_1', 'left', '2', 'num_2', 'right']",0,0,0,Emo_Nback_20180527_v1-ABCD1234,1.0.0.1180,Verdana,1,Right,60.0506542241,ABCD1234,"['2', 'num_2', 'right']",1,Professional,2.0.10.356,2.0.10.356,06/25/2018,17:32:25,Stimuli/,2.0.10.252,0,1,0,160,['space'],6,Cue2Back,2500.0,582435.0,582435.0,579934.0,579934.0,500.0,579934.0,579934.0,579439.0,579439.0,,,,,,,,,,,,,,,,,,,,,,,0,,,None,None,None
Emo_Nback_20180527,1,Behavioral,"['1', 'num_1', 'left', '2', 'num_2', 'right']",0,0,0,Emo_Nback_20180527_v1-ABCD1234,1.0.0.1180,Verdana,1,Right,60.0506542241,ABCD1234,"['2', 'num_2', 'right']",1,Professional,2.0.10.356,2.0.10.356,06/25/2018,17:32:25,Stimuli/,2.0.10.252,0,1,0,160,['space'],6,2-Back,,,,,,,,,,,,,,,,500.0,584933.0,584933.0,584433.0,584433.0,,,,,,0.0,No Match,2000.0,584433.0,584433.0,582442.0,,0,0.0,582441.0,Places,PL_034_FOXISLAND.bmp,nonlure
Emo_Nback_20180527,1,Behavioral,"['1', 'num_1', 'left', '2', 'num_2', 'right']",0,0,0,Emo_Nback_20180527_v1-ABCD1234,1.0.0.1180,Verdana,1,Right,60.0506542241,ABCD1234,"['2', 'num_2', 'right']",1,Professional,2.0.10.356,2.0.10.356,06/25/2018,17:32:25,Stimuli/,2.0.10.252,0,1,0,160,['space'],6,2-Back,,,,,,,,,,,,,,,,500.0,587434.0,587434.0,586934.0,586934.0,,,,,,0.0,No Match,2000.0,586934.0,586934.0,584942.0,,0,0.0,584941.0,Places,PL_044_SCENE01.bmp,nonlure
Emo_Nback_20180527,1,Behavioral,"['1', 'num_1', 'left', '2', 'num_2', 'right']",0,0,0,Emo_Nback_20180527_v1-ABCD1234,1.0.0.1180,Verdana,1,Right,60.0506542241,ABCD1234,"['2', 'num_2', 'right']",1,Professional,2.0.10.356,2.0.10.356,06/25/2018,17:32:25,Stimuli/,2.0.10.252,0,1,0,160,['space'],6,2-Back,,,,,,,,,,,,,,,,500.0,589937.0,589937.0,589434.0,589434.0,,,,,,0.0,No Match,2000.0,589434.0,589433.0,587438.0,,0,0.0,587437.0,Places,PL_044_SCENE01.bmp,lure
Emo_Nback_20180527,1,Behavioral,"['1', 'num_1', 'left', '2', 'num_2', 'right']",0,0,0,Emo_Nback_20180527_v1-ABCD1234,1.0.0.1180,Verdana,1,Right,60.0506542241,ABCD1234,"['2', 'num_2', 'right']",1,Professional,2.0.10.356,2.0.10.356,06/25/2018,17:32:25,Stimuli/,2.0.10.252,0,1,0,160,['space'],6,2-Back,,,,,,,,,,,,,,,,500.0,592426.0,592426.0,591936.0,591936.0,,,,,,0.0,No Match,2000.0,591936.0,591936.0,589943.0,,0,0.0,589943.0,Places,PL_041_LEXINGTON17.bmp,nonlure
Emo_Nback_20180527,1,Behavioral,"['1', 'num_1', 'left', '2', 'num_2', 'right']",0,0,0,Emo_Nback_20180527_v1-ABCD1234,1.0.0.1180,Verdana,1,Right,60.0506542241,ABCD1234,"['2', 'num_2', 'right']",1,Professional,2.0.10.356,2.0.10.356,06/25/2018,17:32:25,Stimuli/,2.0.10.252,0,1,0,160,['space'],6,2-Back,,,,,,,,,,,,,,,,500.0,594934.0,594934.0,594435.0,594435.0,,,,,,0.0,No Match,2000.0,594435.0,594434.0,592434.0,,0,0.0,592434.0,Places,PL_043_LEXINGTON19.bmp,nonlure
Emo_Nback_20180527,1,Behavioral,"['1', 'num_1', 'left', '2', 'num_2', 'right']",0,0,0,Emo_Nback_20180527_v1-ABCD1234,1.0.0.1180,Verdana,1,Right,60.0506542241,ABCD1234,"['2', 'num_2', 'right']",1,Professional,2.0.10.356,2.0.10.356,06/25/2018,17:32:25,Stimuli/,2.0.10.252,0,1,0,160,['space'],6,2-Back,,,,,,,,,,,,,,,,500.0,597438.0,597438.0,596936.0,596936.0,,,,,,0.0,Match,2000.0,596936.0,596936.0,594940.0,,0,0.0,594940.0,Places,PL_041_LEXINGTON17.bmp,target
Emo_Nback_20180527,1,Behavioral,"['1', 'num_1', 'left', '2', 'num_2', 'right']",0,0,0,Emo_Nback_20180527_v1-ABCD1234,1.0.0.1180,Verdana,1,Right,60.0506542241,ABCD1234,"['2', 'num_2', 'right']",1,Professional,2.0.10.356,2.0.10.356,06/25/2018,17:32:25,Stimuli/,2.0.10.252,0,1,0,160,['space'],6,2-Back,,,,,,,,,,,,,,,,500.0,599935.0,599935.0,599435.0,599435.0,,,,,,0.0,Match,2000.0,599435.0,599435.0,597442.0,,0,0.0,597442.0,Places,PL_043_LEXINGTON19.bmp,target
Emo_Nback_20180527,1,Behavioral,"['1', 'num_1', 'left', '2', 'num_2', 'right']",0,0,0,Emo_Nback_20180527_v1-ABCD1234,1.0.0.1180,Verdana,1,Right,60.0506542241,ABCD1234,"['2', 'num_2', 'right']",1,Professional,2.0.10.356,2.0.10.356,06/25/2018,17:32:25,Stimuli/,2.0.10.252,0,1,0,160,['space'],6,2-Back,,,,,,,,,,,,,,,,500.0,602435.0,602435.0,601936.0,601936.0,,,,,,0.0,No Match,2000.0,601936.0,601936.0,599942.0,,0,0.0,599942.0,Places,PL_040_LEXINGTON16.bmp,nonlure
Emo_Nback_20180527,1,Behavioral,"['1', 'num_1', 'left', '2', 'num_2', 'right']",0,0,0,Emo_Nback_20180527_v1-ABCD1234,1.0.0.1180,Verdana,1,Right,60.0506542241,ABCD1234,"['2', 'num_2', 'right']",1,Professional,2.0.10.356,2.0.10.356,06/25/2018,17:32:25,Stimuli/,2.0.10.252,0,1,0,160,['space'],6,2-Back,,,,,,,,,,,,,,,,500.0,604936.0,604936.0,604436.0,604436.0,,,,,,0.0,No Match,2000.0,604436.0,604436.0,602439.0,,0,0.0,602439.0,Places,PL_040_LEXINGTON16.bmp,lure
Emo_Nback_20180527,1,Behavioral,"['1', 'num_1', 'left', '2', 'num_2', 'right']",0,0,0,Emo_Nback_20180527_v1-ABCD1234,1.0.0.1180,Verdana,1,Right,60.0506542241,ABCD1234,"['2', 'num_2', 'right']",1,Professional,2.0.10.356,2.0.10.356,06/25/2018,17:32:25,Stimuli/,2.0.10.252,0,1,0,160,['space'],6,2-Back,,,,,,,,,,,,,,,,500.0,607437.0,607437.0,606957.0,606956.0,,,,,,0.0,No Match,2000.0,606956.0,606956.0,604945.0,,0,0.0,604945.0,Places,o89.1.bmp,nonlure
Emo_Nback_20180527,1,Behavioral,"['1', 'num_1', 'left', '2', 'num_2', 'right']",0,0,0,Emo_Nback_20180527_v1-ABCD1234,1.0.0.1180,Verdana,1,Right,60.0506542241,ABCD1234,"['2', 'num_2', 'right']",1,Professional,2.0.10.356,2.0.10.356,06/25/2018,17:32:25,Stimuli/,2.0.10.252,0,1,0,160,['space'],None,Fix15secPROC,,,,,,,,,,,,,,,,,,,,,15000.0,622440.0,622440.0,607440.0,607440.0,,,,,,,,0,,,None,None,None
Emo_Nback_20180527,1,Behavioral,"['1', 'num_1', 'left', '2', 'num_2', 'right']",0,0,0,Emo_Nback_20180527_v1-ABCD1234,1.0.0.1180,Verdana,1,Right,60.0506542241,ABCD1234,"['2', 'num_2', 'right']",1,Professional,2.0.10.356,2.0.10.356,06/25/2018,17:32:25,Stimuli/,2.0.10.252,0,1,0,160,['space'],7,Cue0Back,,,,,,500.0,622940.0,622940.0,622449.0,622449.0,2500.0,625440.0,625440.0,622941.0,622940.0,,,,,,,,,,,,,,,,,,0,,,Faces,LF209_NC.bmp,target
Emo_Nback_20180527,1,Behavioral,"['1', 'num_1', 'left', '2', 'num_2', 'right']",0,0,0,Emo_Nback_20180527_v1-ABCD1234,1.0.0.1180,Verdana,1,Right,60.0506542241,ABCD1234,"['2', 'num_2', 'right']",1,Professional,2.0.10.356,2.0.10.356,06/25/2018,17:32:25,Stimuli/,2.0.10.252,0,1,0,160,['space'],7,0-Back,,,,,,,,,,,,,,,,500.0,627941.0,627941.0,627441.0,627441.0,,,,,,0.0,No Match,2000.0,627441.0,627441.0,625450.0,,0,0.0,625450.0,NeutFace,BM04_NC.bmp,nonlure
Emo_Nback_20180527,1,Behavioral,"['1', 'num_1', 'left', '2', 'num_2', 'right']",0,0,0,Emo_Nback_20180527_v1-ABCD1234,1.0.0.1180,Verdana,1,Right,60.0506542241,ABCD1234,"['2', 'num_2', 'right']",1,Professional,2.0.10.356,2.0.10.356,06/25/2018,17:32:25,Stimuli/,2.0.10.252,0,1,0,160,['space'],7,0-Back,,,,,,,,,,,,,,,,500.0,630440.0,630440.0,629941.0,629941.0,,,,,,0.0,No Match,2000.0,629941.0,629941.0,627950.0,,0,0.0,627950.0,NeutFace,AM04_NC.bmp,nonlure
Emo_Nback_20180527,1,Behavioral,"['1', 'num_1', 'left', '2', 'num_2', 'right']",0,0,0,Emo_Nback_20180527_v1-ABCD1234,1.0.0.1180,Verdana,1,Right,60.0506542241,ABCD1234,"['2', 'num_2', 'right']",1,Professional,2.0.10.356,2.0.10.356,06/25/2018,17:32:25,Stimuli/,2.0.10.252,0,1,0,160,['space'],7,0-Back,,,,,,,,,,,,,,,,500.0,632941.0,632941.0,632441.0,632441.0,,,,,,0.0,Match,2000.0,632441.0,632441.0,630446.0,,0,0.0,630445.0,NeutFace,LF209_NC.bmp,target
Emo_Nback_20180527,1,Behavioral,"['1', 'num_1', 'left', '2', 'num_2', 'right']",0,0,0,Emo_Nback_20180527_v1-ABCD1234,1.0.0.1180,Verdana,1,Right,60.0506542241,ABCD1234,"['2', 'num_2', 'right']",1,Professional,2.0.10.356,2.0.10.356,06/25/2018,17:32:25,Stimuli/,2.0.10.252,0,1,0,160,['space'],7,0-Back,,,,,,,,,,,,,,,,500.0,635425.0,635425.0,634925.0,634925.0,,,,,,0.0,No Match,2000.0,634925.0,634925.0,632946.0,,0,0.0,632946.0,NeutFace,BM04_NC.bmp,lure
Emo_Nback_20180527,1,Behavioral,"['1', 'num_1', 'left', '2', 'num_2', 'right']",0,0,0,Emo_Nback_20180527_v1-ABCD1234,1.0.0.1180,Verdana,1,Right,60.0506542241,ABCD1234,"['2', 'num_2', 'right']",1,Professional,2.0.10.356,2.0.10.356,06/25/2018,17:32:25,Stimuli/,2.0.10.252,0,1,0,160,['space'],7,0-Back,,,,,,,,,,,,,,,,500.0,637925.0,637925.0,637425.0,637425.0,,,,,,0.0,Match,2000.0,637425.0,637425.0,635431.0,,0,0.0,635430.0,NeutFace,LF209_NC.bmp,target
Emo_Nback_20180527,1,Behavioral,"['1', 'num_1', 'left', '2', 'num_2', 'right']",0,0,0,Emo_Nback_20180527_v1-ABCD1234,1.0.0.1180,Verdana,1,Right,60.0506542241,ABCD1234,"['2', 'num_2', 'right']",1,Professional,2.0.10.356,2.0.10.356,06/25/2018,17:32:25,Stimuli/,2.0.10.252,0,1,0,160,['space'],7,0-Back,,,,,,,,,,,,,,,,500.0,640425.0,640425.0,639926.0,639926.0,,,,,,0.0,No Match,2000.0,639926.0,639926.0,637933.0,,0,0.0,637933.0,NeutFace,AF235_NC.bmp,nonlure
Emo_Nback_20180527,1,Behavioral,"['1', 'num_1', 'left', '2', 'num_2', 'right']",0,0,0,Emo_Nback_20180527_v1-ABCD1234,1.0.0.1180,Verdana,1,Right,60.0506542241,ABCD1234,"['2', 'num_2', 'right']",1,Professional,2.0.10.356,2.0.10.356,06/25/2018,17:32:25,Stimuli/,2.0.10.252,0,1,0,160,['space'],7,0-Back,,,,,,,,,,,,,,,,500.0,642925.0,642925.0,642426.0,642426.0,,,,,,0.0,No Match,2000.0,642426.0,642426.0,640431.0,,0,0.0,640431.0,NeutFace,AM04_NC.bmp,lure
Emo_Nback_20180527,1,Behavioral,"['1', 'num_1', 'left', '2', 'num_2', 'right']",0,0,0,Emo_Nback_20180527_v1-ABCD1234,1.0.0.1180,Verdana,1,Right,60.0506542241,ABCD1234,"['2', 'num_2', 'right']",1,Professional,2.0.10.356,2.0.10.356,06/25/2018,17:32:25,Stimuli/,2.0.10.252,0,1,0,160,['space'],7,0-Back,,,,,,,,,,,,,,,,500.0,645426.0,645426.0,644926.0,644926.0,,,,,,0.0,No Match,2000.0,644926.0,644926.0,642935.0,,0,0.0,642935.0,NeutFace,WM036_NC.bmp,nonlure
Emo_Nback_20180527,1,Behavioral,"['1', 'num_1', 'left', '2', 'num_2', 'right']",0,0,0,Emo_Nback_20180527_v1-ABCD1234,1.0.0.1180,Verdana,1,Right,60.0506542241,ABCD1234,"['2', 'num_2', 'right']",1,Professional,2.0.10.356,2.0.10.356,06/25/2018,17:32:25,Stimuli/,2.0.10.252,0,1,0,160,['space'],7,0-Back,,,,,,,,,,,,,,,,500.0,647926.0,647926.0,647427.0,647427.0,,,,,,0.0,No Match,2000.0,647427.0,647427.0,645432.0,,0,0.0,645431.0,NeutFace,WM036_NC.bmp,lure
Emo_Nback_20180527,1,Behavioral,"['1', 'num_1', 'left', '2', 'num_2', 'right']",0,0,0,Emo_Nback_20180527_v1-ABCD1234,1.0.0.1180,Verdana,1,Right,60.0506542241,ABCD1234,"['2', 'num_2', 'right']",1,Professional,2.0.10.356,2.0.10.356,06/25/2018,17:32:25,Stimuli/,2.0.10.252,0,1,0,160,['space'],7,0-Back,,,,,,,,,,,,,,,,500.0,650427.0,650427.0,649927.0,649927.0,,,,,,0.0,No Match,2000.0,649927.0,649927.0,647935.0,,0,0.0,647935.0,NeutFace,BF201_NC.bmp,nonlure
Emo_Nback_20180527,1,Behavioral,"['1', 'num_1', 'left', '2', 'num_2', 'right']",0,0,0,Emo_Nback_20180527_v1-ABCD1234,1.0.0.1180,Verdana,1,Right,60.0506542241,ABCD1234,"['2', 'num_2', 'right']",1,Professional,2.0.10.356,2.0.10.356,06/25/2018,17:32:25,Stimuli/,2.0.10.252,0,1,0,160,['space'],8,Cue0Back,,,,,,500.0,650927.0,650927.0,650432.0,650432.0,2500.0,653427.0,653427.0,650928.0,650927.0,,,,,,,,,,,,,,,,,,0,,,Place,PL_047_SCENE04.bmp,target
Emo_Nback_20180527,1,Behavioral,"['1', 'num_1', 'left', '2', 'num_2', 'right']",0,0,0,Emo_Nback_20180527_v1-ABCD1234,1.0.0.1180,Verdana,1,Right,60.0506542241,ABCD1234,"['2', 'num_2', 'right']",1,Professional,2.0.10.356,2.0.10.356,06/25/2018,17:32:25,Stimuli/,2.0.10.252,0,1,0,160,['space'],8,0-Back,,,,,,,,,,,,,,,,500.0,655928.0,655928.0,655428.0,655428.0,,,,,,0.0,No Match,2000.0,655428.0,655428.0,653436.0,,0,0.0,653436.0,Place,PL_046_SCENE03.bmp,nonlure
Emo_Nback_20180527,1,Behavioral,"['1', 'num_1', 'left', '2', 'num_2', 'right']",0,0,0,Emo_Nback_20180527_v1-ABCD1234,1.0.0.1180,Verdana,1,Right,60.0506542241,ABCD1234,"['2', 'num_2', 'right']",1,Professional,2.0.10.356,2.0.10.356,06/25/2018,17:32:25,Stimuli/,2.0.10.252,0,1,0,160,['space'],8,0-Back,,,,,,,,,,,,,,,,500.0,658428.0,658428.0,657928.0,657928.0,,,,,,0.0,No Match,2000.0,657928.0,657928.0,655937.0,,0,0.0,655936.0,Place,PL_045_SCENE02.bmp,nonlure
Emo_Nback_20180527,1,Behavioral,"['1', 'num_1', 'left', '2', 'num_2', 'right']",0,0,0,Emo_Nback_20180527_v1-ABCD1234,1.0.0.1180,Verdana,1,Right,60.0506542241,ABCD1234,"['2', 'num_2', 'right']",1,Professional,2.0.10.356,2.0.10.356,06/25/2018,17:32:25,Stimuli/,2.0.10.252,0,1,0,160,['space'],8,0-Back,,,,,,,,,,,,,,,,500.0,660928.0,660928.0,660429.0,660428.0,,,,,,0.0,No Match,2000.0,660428.0,660428.0,658434.0,,0,0.0,658433.0,Place,PL_046_SCENE03.bmp,lure
Emo_Nback_20180527,1,Behavioral,"['1', 'num_1', 'left', '2', 'num_2', 'right']",0,0,0,Emo_Nback_20180527_v1-ABCD1234,1.0.0.1180,Verdana,1,Right,60.0506542241,ABCD1234,"['2', 'num_2', 'right']",1,Professional,2.0.10.356,2.0.10.356,06/25/2018,17:32:25,Stimuli/,2.0.10.252,0,1,0,160,['space'],8,0-Back,,,,,,,,,,,,,,,,500.0,663429.0,663429.0,662929.0,662929.0,,,,,,0.0,No Match,2000.0,662929.0,662929.0,660938.0,,0,0.0,660938.0,Place,PL_048_SCENE05.bmp,nonlure
Emo_Nback_20180527,1,Behavioral,"['1', 'num_1', 'left', '2', 'num_2', 'right']",0,0,0,Emo_Nback_20180527_v1-ABCD1234,1.0.0.1180,Verdana,1,Right,60.0506542241,ABCD1234,"['2', 'num_2', 'right']",1,Professional,2.0.10.356,2.0.10.356,06/25/2018,17:32:25,Stimuli/,2.0.10.252,0,1,0,160,['space'],8,0-Back,,,,,,,,,,,,,,,,500.0,665929.0,665929.0,665429.0,665429.0,,,,,,0.0,No Match,2000.0,665429.0,665429.0,663434.0,,0,0.0,663434.0,Place,PL_045_SCENE02.bmp,lure
Emo_Nback_20180527,1,Behavioral,"['1', 'num_1', 'left', '2', 'num_2', 'right']",0,0,0,Emo_Nback_20180527_v1-ABCD1234,1.0.0.1180,Verdana,1,Right,60.0506542241,ABCD1234,"['2', 'num_2', 'right']",1,Professional,2.0.10.356,2.0.10.356,06/25/2018,17:32:25,Stimuli/,2.0.10.252,0,1,0,160,['space'],8,0-Back,,,,,,,,,,,,,,,,500.0,668430.0,668430.0,667929.0,667929.0,,,,,,0.0,Match,2000.0,667929.0,667929.0,665934.0,,0,0.0,665934.0,Place,PL_047_SCENE04.bmp,target
Emo_Nback_20180527,1,Behavioral,"['1', 'num_1', 'left', '2', 'num_2', 'right']",0,0,0,Emo_Nback_20180527_v1-ABCD1234,1.0.0.1180,Verdana,1,Right,60.0506542241,ABCD1234,"['2', 'num_2', 'right']",1,Professional,2.0.10.356,2.0.10.356,06/25/2018,17:32:25,Stimuli/,2.0.10.252,0,1,0,160,['space'],8,0-Back,,,,,,,,,,,,,,,,500.0,670930.0,670930.0,670429.0,670429.0,,,,,,0.0,Match,2000.0,670429.0,670429.0,668435.0,,0,0.0,668435.0,Place,PL_047_SCENE04.bmp,target
Emo_Nback_20180527,1,Behavioral,"['1', 'num_1', 'left', '2', 'num_2', 'right']",0,0,0,Emo_Nback_20180527_v1-ABCD1234,1.0.0.1180,Verdana,1,Right,60.0506542241,ABCD1234,"['2', 'num_2', 'right']",1,Professional,2.0.10.356,2.0.10.356,06/25/2018,17:32:25,Stimuli/,2.0.10.252,0,1,0,160,['space'],8,0-Back,,,,,,,,,,,,,,,,500.0,673430.0,673430.0,672931.0,672931.0,,,,,,0.0,No Match,2000.0,672931.0,672931.0,670940.0,,0,0.0,670940.0,Place,PL_049_SCENE06.bmp,nonlure
Emo_Nback_20180527,1,Behavioral,"['1', 'num_1', 'left', '2', 'num_2', 'right']",0,0,0,Emo_Nback_20180527_v1-ABCD1234,1.0.0.1180,Verdana,1,Right,60.0506542241,ABCD1234,"['2', 'num_2', 'right']",1,Professional,2.0.10.356,2.0.10.356,06/25/2018,17:32:25,Stimuli/,2.0.10.252,0,1,0,160,['space'],8,0-Back,,,,,,,,,,,,,,,,500.0,675931.0,675931.0,675431.0,675431.0,,,,,,0.0,No Match,2000.0,675431.0,675431.0,673440.0,,0,0.0,673439.0,Place,PL_050_SCENE07.bmp,nonlure
Emo_Nback_20180527,1,Behavioral,"['1', 'num_1', 'left', '2', 'num_2', 'right']",0,0,0,Emo_Nback_20180527_v1-ABCD1234,1.0.0.1180,Verdana,1,Right,60.0506542241,ABCD1234,"['2', 'num_2', 'right']",1,Professional,2.0.10.356,2.0.10.356,06/25/2018,17:32:25,Stimuli/,2.0.10.252,0,1,0,160,['space'],8,0-Back,,,,,,,,,,,,,,,,500.0,678431.0,678431.0,677930.0,677930.0,,,,,,0.0,No Match,2000.0,677930.0,677930.0,675937.0,,0,0.0,675936.0,Place,PL_048_SCENE05.bmp,lure
Emo_Nback_20180527,1,Behavioral,"['1', 'num_1', 'left', '2', 'num_2', 'right']",0,0,0,Emo_Nback_20180527_v1-ABCD1234,1.0.0.1180,Verdana,1,Right,60.0506542241,ABCD1234,"['2', 'num_2', 'right']",1,Professional,2.0.10.356,2.0.10.356,06/25/2018,17:32:25,Stimuli/,2.0.10.252,0,1,0,160,['space'],None,Fix15secPROC,,,,,,,,,,,,,,,,,,,,,15000.0,693433.0,693433.0,678434.0,678434.0,,,,,,,,0,,,None,None,None
