ExperimentName,Subject,Session,Allowed,Clock.Information,ConsecNonResp[Session],ConsecRTLess200[Session],DataFile.Basename,ExperimentVersion,FontStyle,Group,Handedness,Main.RefreshRate,NARGUID,Nontarget,RunNumber,RuntimeCapabilities,RuntimeVersion,RuntimeVersionExpected,SessionDate,SessionTime,StimuliDir,StudioVersion,SUBID,Target,TotalRespGreater200[Session],TrialsPerRun[Session],triggercode,Block,BlockType,Cue2Back.Duration,Cue2Back.FinishTime,Cue2Back.OffsetTime,Cue2Back.OnsetTime,Cue2Back.StartTime,CueFix.Duration,CueFix.FinishTime,CueFix.OffsetTime,CueFix.OnsetTime,CueFix.StartTime,CueTarget.Duration,CueTarget.FinishTime,CueTarget.OffsetTime,CueTarget.OnsetTime,CueTarget.StartTime,Fix.Duration,Fix.FinishTime,Fix.OffsetTime,Fix.OnsetTime,Fix.StartTime,Fix15sec.Duration,Fix15sec.FinishTime,Fix15sec.OffsetTime,Fix15sec.OnsetTime,Fix15sec.StartTime,Stim.ACC,Stim.CRESP,Stim.Duration,Stim.FinishTime,Stim.OffsetTime,Stim.OnsetTime,Stim.RESP,Stim.RT,Stim.RTTime,Stim.StartTime,StimType,Stimulus,TargetType
Emo_Nback_20180527,1,Behavioral,"['1', 'num_1', 'left', '2', 'num_2', 'right']",0,0,0,Emo_Nback_20180527_v1-ABCD1234,1.0.0.1180,Verdana,1,Right,60.2729473979,ABCD1234,"['2', 'num_2', 'right']",1,Professional,2.0.10.356,2.0.10.356,06/25/2018,22:10:20,Stimuli/,2.0.10.252,0,1,0,160,['space'],1.0,Cue2Back,2500.0,8556.0,8556.0,6057.0,6057.0,500.0,6057.0,6057.0,5545.0,5545.0,,,,,,,,,,,,,,,,,,,,,,,0,,,Faces,,
Emo_Nback_20180527,1,Behavioral,"['1', 'num_1', 'left', '2', 'num_2', 'right']",0,0,0,Emo_Nback_20180527_v1-ABCD1234,1.0.0.1180,Verdana,1,Right,60.2729473979,ABCD1234,"['2', 'num_2', 'right']",1,Professional,2.0.10.356,2.0.10.356,06/25/2018,22:10:20,Stimuli/,2.0.10.252,0,1,0,160,['space'],1.0,2-Back,,,,,,,,,,,,,,,,500.0,11057.0,11056.0,10557.0,10557.0,,,,,,0.0,No Match,2000.0,10557.0,10557.0,8562.0,,0,0.0,8562.0,PosFace,23M_HO.bmp,nonlure
Emo_Nback_20180527,1,Behavioral,"['1', 'num_1', 'left', '2', 'num_2', 'right']",0,0,0,Emo_Nback_20180527_v1-ABCD1234,1.0.0.1180,Verdana,1,Right,60.2729473979,ABCD1234,"['2', 'num_2', 'right']",1,Professional,2.0.10.356,2.0.10.356,06/25/2018,22:10:20,Stimuli/,2.0.10.252,0,1,0,160,['space'],1.0,2-Back,,,,,,,,,,,,,,,,500.0,13555.0,13555.0,13057.0,13057.0,,,,,,0.0,No Match,2000.0,13057.0,13057.0,11062.0,,0,0.0,11062.0,PosFace,12F_HO.bmp,nonlure
Emo_Nback_20180527,1,Behavioral,"['1', 'num_1', 'left', '2', 'num_2', 'right']",0,0,0,Emo_Nback_20180527_v1-ABCD1234,1.0.0.1180,Verdana,1,Right,60.2729473979,ABCD1234,"['2', 'num_2', 'right']",1,Professional,2.0.10.356,2.0.10.356,06/25/2018,22:10:20,Stimuli/,2.0.10.252,0,1,0,160,['space'],1.0,2-Back,,,,,,,,,,,,,,,,500.0,16056.0,16056.0,15557.0,15557.0,,,,,,0.0,No Match,2000.0,15557.0,15557.0,13559.0,,0,0.0,13559.0,PosFace,AF02_HO.bmp,nonlure
Emo_Nback_20180527,1,Behavioral,"['1', 'num_1', 'left', '2', 'num_2', 'right']",0,0,0,Emo_Nback_20180527_v1-ABCD1234,1.0.0.1180,Verdana,1,Right,60.2729473979,ABCD1234,"['2', 'num_2', 'right']",1,Professional,2.0.10.356,2.0.10.356,06/25/2018,22:10:20,Stimuli/,2.0.10.252,0,1,0,160,['space'],1.0,2-Back,,,,,,,,,,,,,,,,500.0,18556.0,18556.0,18057.0,18057.0,,,,,,0.0,Match,2000.0,18057.0,18057.0,16061.0,,0,0.0,16060.0,PosFace,12F_HO.bmp,target
Emo_Nback_20180527,1,Behavioral,"['1', 'num_1', 'left', '2', 'num_2', 'right']",0,0,0,Emo_Nback_20180527_v1-ABCD1234,1.0.0.1180,Verdana,1,Right,60.2729473979,ABCD1234,"['2', 'num_2', 'right']",1,Professional,2.0.10.356,2.0.10.356,06/25/2018,22:10:20,Stimuli/,2.0.10.252,0,1,0,160,['space'],1.0,2-Back,,,,,,,,,,,,,,,,500.0,21057.0,21057.0,20542.0,20542.0,,,,,,0.0,No Match,2000.0,20542.0,20542.0,18561.0,,0,0.0,18561.0,PosFace,WM011_HO.bmp,nonlure
Emo_Nback_20180527,1,Behavioral,"['1', 'num_1', 'left', '2', 'num_2', 'right']",0,0,0,Emo_Nback_20180527_v1-ABCD1234,1.0.0.1180,Verdana,1,Right,60.2729473979,ABCD1234,"['2', 'num_2', 'right']",1,Professional,2.0.10.356,2.0.10.356,06/25/2018,22:10:20,Stimuli/,2.0.10.252,0,1,0,160,['space'],1.0,2-Back,,,,,,,,,,,,,,,,500.0,23557.0,23557.0,23043.0,23043.0,,,,,,0.0,No Match,2000.0,23043.0,23042.0,21062.0,,0,0.0,21062.0,PosFace,HM04_HO.bmp,nonlure
Emo_Nback_20180527,1,Behavioral,"['1', 'num_1', 'left', '2', 'num_2', 'right']",0,0,0,Emo_Nback_20180527_v1-ABCD1234,1.0.0.1180,Verdana,1,Right,60.2729473979,ABCD1234,"['2', 'num_2', 'right']",1,Professional,2.0.10.356,2.0.10.356,06/25/2018,22:10:20,Stimuli/,2.0.10.252,0,1,0,160,['space'],1.0,2-Back,,,,,,,,,,,,,,,,500.0,26058.0,26058.0,25558.0,25558.0,,,,,,0.0,No Match,2000.0,25558.0,25558.0,23562.0,,0,0.0,23561.0,PosFace,AF02_HO.bmp,lure
Emo_Nback_20180527,1,Behavioral,"['1', 'num_1', 'left', '2', 'num_2', 'right']",0,0,0,Emo_Nback_20180527_v1-ABCD1234,1.0.0.1180,Verdana,1,Right,60.2729473979,ABCD1234,"['2', 'num_2', 'right']",1,Professional,2.0.10.356,2.0.10.356,06/25/2018,22:10:20,Stimuli/,2.0.10.252,0,1,0,160,['space'],1.0,2-Back,,,,,,,,,,,,,,,,500.0,28558.0,28558.0,28042.0,28042.0,,,,,,0.0,No Match,2000.0,28042.0,28042.0,26063.0,,0,0.0,26062.0,PosFace,BF037_HO.bmp,nonlure
Emo_Nback_20180527,1,Behavioral,"['1', 'num_1', 'left', '2', 'num_2', 'right']",0,0,0,Emo_Nback_20180527_v1-ABCD1234,1.0.0.1180,Verdana,1,Right,60.2729473979,ABCD1234,"['2', 'num_2', 'right']",1,Professional,2.0.10.356,2.0.10.356,06/25/2018,22:10:20,Stimuli/,2.0.10.252,0,1,0,160,['space'],1.0,2-Back,,,,,,,,,,,,,,,,500.0,31043.0,31043.0,30543.0,30543.0,,,,,,0.0,No Match,2000.0,30543.0,30543.0,28563.0,,0,0.0,28562.0,PosFace,WM011_HO.bmp,lure
Emo_Nback_20180527,1,Behavioral,"['1', 'num_1', 'left', '2', 'num_2', 'right']",0,0,0,Emo_Nback_20180527_v1-ABCD1234,1.0.0.1180,Verdana,1,Right,60.2729473979,ABCD1234,"['2', 'num_2', 'right']",1,Professional,2.0.10.356,2.0.10.356,06/25/2018,22:10:20,Stimuli/,2.0.10.252,0,1,0,160,['space'],1.0,2-Back,,,,,,,,,,,,,,,,500.0,33544.0,33544.0,33043.0,33043.0,,,,,,0.0,Match,2000.0,33043.0,33043.0,31048.0,,0,0.0,31047.0,PosFace,BF037_HO.bmp,target
Emo_Nback_20180527,1,Behavioral,"['1', 'num_1', 'left', '2', 'num_2', 'right']",0,0,0,Emo_Nback_20180527_v1-ABCD1234,1.0.0.1180,Verdana,1,Right,60.2729473979,ABCD1234,"['2', 'num_2', 'right']",1,Professional,2.0.10.356,2.0.10.356,06/25/2018,22:10:20,Stimuli/,2.0.10.252,0,1,0,160,['space'],2.0,Cue0Back,,,,,,500.0,34043.0,34043.0,33548.0,33548.0,2500.0,36543.0,36543.0,34043.0,34043.0,,,,,,,,,,,,,,,,,,0,,,Faces,AF218_NC.bmp,target
Emo_Nback_20180527,1,Behavioral,"['1', 'num_1', 'left', '2', 'num_2', 'right']",0,0,0,Emo_Nback_20180527_v1-ABCD1234,1.0.0.1180,Verdana,1,Right,60.2729473979,ABCD1234,"['2', 'num_2', 'right']",1,Professional,2.0.10.356,2.0.10.356,06/25/2018,22:10:20,Stimuli/,2.0.10.252,0,1,0,160,['space'],2.0,0-Back,,,,,,,,,,,,,,,,500.0,39044.0,39044.0,38545.0,38545.0,,,,,,0.0,No Match,2000.0,38545.0,38545.0,36548.0,,0,0.0,36548.0,NeutFace,LF206_NC.bmp,nonlure
Emo_Nback_20180527,1,Behavioral,"['1', 'num_1', 'left', '2', 'num_2', 'right']",0,0,0,Emo_Nback_20180527_v1-ABCD1234,1.0.0.1180,Verdana,1,Right,60.2729473979,ABCD1234,"['2', 'num_2', 'right']",1,Professional,2.0.10.356,2.0.10.356,06/25/2018,22:10:20,Stimuli/,2.0.10.252,0,1,0,160,['space'],2.0,0-Back,,,,,,,,,,,,,,,,500.0,41545.0,41545.0,41044.0,41044.0,,,,,,0.0,Match,2000.0,41044.0,41044.0,39049.0,,0,0.0,39049.0,NeutFace,AF218_NC.bmp,target
Emo_Nback_20180527,1,Behavioral,"['1', 'num_1', 'left', '2', 'num_2', 'right']",0,0,0,Emo_Nback_20180527_v1-ABCD1234,1.0.0.1180,Verdana,1,Right,60.2729473979,ABCD1234,"['2', 'num_2', 'right']",1,Professional,2.0.10.356,2.0.10.356,06/25/2018,22:10:20,Stimuli/,2.0.10.252,0,1,0,160,['space'],2.0,0-Back,,,,,,,,,,,,,,,,500.0,44044.0,44044.0,43544.0,43544.0,,,,,,0.0,No Match,2000.0,43544.0,43544.0,41550.0,,0,0.0,41550.0,NeutFace,42M_NC.bmp,nonlure
Emo_Nback_20180527,1,Behavioral,"['1', 'num_1', 'left', '2', 'num_2', 'right']",0,0,0,Emo_Nback_20180527_v1-ABCD1234,1.0.0.1180,Verdana,1,Right,60.2729473979,ABCD1234,"['2', 'num_2', 'right']",1,Professional,2.0.10.356,2.0.10.356,06/25/2018,22:10:20,Stimuli/,2.0.10.252,0,1,0,160,['space'],2.0,0-Back,,,,,,,,,,,,,,,,500.0,46544.0,46544.0,46046.0,46046.0,,,,,,0.0,No Match,2000.0,46046.0,46046.0,44048.0,,0,0.0,44048.0,NeutFace,BM09_NC.bmp,nonlure
Emo_Nback_20180527,1,Behavioral,"['1', 'num_1', 'left', '2', 'num_2', 'right']",0,0,0,Emo_Nback_20180527_v1-ABCD1234,1.0.0.1180,Verdana,1,Right,60.2729473979,ABCD1234,"['2', 'num_2', 'right']",1,Professional,2.0.10.356,2.0.10.356,06/25/2018,22:10:20,Stimuli/,2.0.10.252,0,1,0,160,['space'],2.0,0-Back,,,,,,,,,,,,,,,,500.0,49046.0,49046.0,48545.0,48545.0,,,,,,0.0,No Match,2000.0,48545.0,48545.0,46549.0,,0,0.0,46549.0,NeutFace,BM09_NC.bmp,lure
Emo_Nback_20180527,1,Behavioral,"['1', 'num_1', 'left', '2', 'num_2', 'right']",0,0,0,Emo_Nback_20180527_v1-ABCD1234,1.0.0.1180,Verdana,1,Right,60.2729473979,ABCD1234,"['2', 'num_2', 'right']",1,Professional,2.0.10.356,2.0.10.356,06/25/2018,22:10:20,Stimuli/,2.0.10.252,0,1,0,160,['space'],2.0,0-Back,,,,,,,,,,,,,,,,500.0,51545.0,51545.0,51045.0,51045.0,,,,,,0.0,Match,2000.0,51045.0,51045.0,49051.0,,0,0.0,49051.0,NeutFace,AF218_NC.bmp,target
Emo_Nback_20180527,1,Behavioral,"['1', 'num_1', 'left', '2', 'num_2', 'right']",0,0,0,Emo_Nback_20180527_v1-ABCD1234,1.0.0.1180,Verdana,1,Right,60.2729473979,ABCD1234,"['2', 'num_2', 'right']",1,Professional,2.0.10.356,2.0.10.356,06/25/2018,22:10:20,Stimuli/,2.0.10.252,0,1,0,160,['space'],2.0,0-Back,,,,,,,,,,,,,,,,500.0,54046.0,54045.0,53547.0,53547.0,,,,,,0.0,No Match,2000.0,53547.0,53547.0,51550.0,,0,0.0,51549.0,NeutFace,7F_NC.bmp,nonlure
Emo_Nback_20180527,1,Behavioral,"['1', 'num_1', 'left', '2', 'num_2', 'right']",0,0,0,Emo_Nback_20180527_v1-ABCD1234,1.0.0.1180,Verdana,1,Right,60.2729473979,ABCD1234,"['2', 'num_2', 'right']",1,Professional,2.0.10.356,2.0.10.356,06/25/2018,22:10:20,Stimuli/,2.0.10.252,0,1,0,160,['space'],2.0,0-Back,,,,,,,,,,,,,,,,500.0,56546.0,56546.0,56046.0,56046.0,,,,,,0.0,No Match,2000.0,56046.0,56046.0,54050.0,,0,0.0,54050.0,NeutFace,7F_NC.bmp,lure
Emo_Nback_20180527,1,Behavioral,"['1', 'num_1', 'left', '2', 'num_2', 'right']",0,0,0,Emo_Nback_20180527_v1-ABCD1234,1.0.0.1180,Verdana,1,Right,60.2729473979,ABCD1234,"['2', 'num_2', 'right']",1,Professional,2.0.10.356,2.0.10.356,06/25/2018,22:10:20,Stimuli/,2.0.10.252,0,1,0,160,['space'],2.0,0-Back,,,,,,,,,,,,,,,,500.0,59046.0,59046.0,58547.0,58547.0,,,,,,0.0,No Match,2000.0,58547.0,58546.0,56550.0,,0,0.0,56550.0,NeutFace,42M_NC.bmp,lure
Emo_Nback_20180527,1,Behavioral,"['1', 'num_1', 'left', '2', 'num_2', 'right']",0,0,0,Emo_Nback_20180527_v1-ABCD1234,1.0.0.1180,Verdana,1,Right,60.2729473979,ABCD1234,"['2', 'num_2', 'right']",1,Professional,2.0.10.356,2.0.10.356,06/25/2018,22:10:20,Stimuli/,2.0.10.252,0,1,0,160,['space'],2.0,0-Back,,,,,,,,,,,,,,,,500.0,61547.0,61547.0,61048.0,61048.0,,,,,,0.0,No Match,2000.0,61048.0,61047.0,59051.0,,0,0.0,59051.0,NeutFace,LM207_NC.bmp,nonlure
Emo_Nback_20180527,1,Behavioral,"['1', 'num_1', 'left', '2', 'num_2', 'right']",0,0,0,Emo_Nback_20180527_v1-ABCD1234,1.0.0.1180,Verdana,1,Right,60.2729473979,ABCD1234,"['2', 'num_2', 'right']",1,Professional,2.0.10.356,2.0.10.356,06/25/2018,22:10:20,Stimuli/,2.0.10.252,0,1,0,160,['space'],None,Fix15secPROC,,,,,,,,,,,,,,,,,,,,,15000.0,76549.0,76549.0,61549.0,61549.0,,,,,,,,0,,,None,None,None
Emo_Nback_20180527,1,Behavioral,"['1', 'num_1', 'left', '2', 'num_2', 'right']",0,0,0,Emo_Nback_20180527_v1-ABCD1234,1.0.0.1180,Verdana,1,Right,60.2729473979,ABCD1234,"['2', 'num_2', 'right']",1,Professional,2.0.10.356,2.0.10.356,06/25/2018,22:10:20,Stimuli/,2.0.10.252,0,1,0,160,['space'],3.0,Cue2Back,2500.0,79549.0,79549.0,77048.0,77048.0,500.0,77048.0,77048.0,76554.0,76554.0,,,,,,,,,,,,,,,,,,,,,,,0,,,Faces,None,None
Emo_Nback_20180527,1,Behavioral,"['1', 'num_1', 'left', '2', 'num_2', 'right']",0,0,0,Emo_Nback_20180527_v1-ABCD1234,1.0.0.1180,Verdana,1,Right,60.2729473979,ABCD1234,"['2', 'num_2', 'right']",1,Professional,2.0.10.356,2.0.10.356,06/25/2018,22:10:20,Stimuli/,2.0.10.252,0,1,0,160,['space'],3.0,2-Back,,,,,,,,,,,,,,,,500.0,82050.0,82050.0,81551.0,81551.0,,,,,,0.0,No Match,2000.0,81551.0,81551.0,79553.0,,0,0.0,79553.0,NegFace,17F_FO.bmp,nonlure
Emo_Nback_20180527,1,Behavioral,"['1', 'num_1', 'left', '2', 'num_2', 'right']",0,0,0,Emo_Nback_20180527_v1-ABCD1234,1.0.0.1180,Verdana,1,Right,60.2729473979,ABCD1234,"['2', 'num_2', 'right']",1,Professional,2.0.10.356,2.0.10.356,06/25/2018,22:10:20,Stimuli/,2.0.10.252,0,1,0,160,['space'],3.0,2-Back,,,,,,,,,,,,,,,,500.0,84550.0,84549.0,84050.0,84050.0,,,,,,0.0,No Match,2000.0,84050.0,84050.0,82054.0,,0,0.0,82054.0,NegFace,HM03_FO.bmp,nonlure
Emo_Nback_20180527,1,Behavioral,"['1', 'num_1', 'left', '2', 'num_2', 'right']",0,0,0,Emo_Nback_20180527_v1-ABCD1234,1.0.0.1180,Verdana,1,Right,60.2729473979,ABCD1234,"['2', 'num_2', 'right']",1,Professional,2.0.10.356,2.0.10.356,06/25/2018,22:10:20,Stimuli/,2.0.10.252,0,1,0,160,['space'],3.0,2-Back,,,,,,,,,,,,,,,,500.0,87049.0,87049.0,86551.0,86551.0,,,,,,0.0,No Match,2000.0,86551.0,86551.0,84554.0,,0,0.0,84554.0,NegFace,BM045_FO.bmp,nonlure
Emo_Nback_20180527,1,Behavioral,"['1', 'num_1', 'left', '2', 'num_2', 'right']",0,0,0,Emo_Nback_20180527_v1-ABCD1234,1.0.0.1180,Verdana,1,Right,60.2729473979,ABCD1234,"['2', 'num_2', 'right']",1,Professional,2.0.10.356,2.0.10.356,06/25/2018,22:10:20,Stimuli/,2.0.10.252,0,1,0,160,['space'],3.0,2-Back,,,,,,,,,,,,,,,,500.0,89550.0,89550.0,89052.0,89052.0,,,,,,0.0,Match,2000.0,89052.0,89051.0,87054.0,,0,0.0,87054.0,NegFace,HM03_FO.bmp,target
Emo_Nback_20180527,1,Behavioral,"['1', 'num_1', 'left', '2', 'num_2', 'right']",0,0,0,Emo_Nback_20180527_v1-ABCD1234,1.0.0.1180,Verdana,1,Right,60.2729473979,ABCD1234,"['2', 'num_2', 'right']",1,Professional,2.0.10.356,2.0.10.356,06/25/2018,22:10:20,Stimuli/,2.0.10.252,0,1,0,160,['space'],3.0,2-Back,,,,,,,,,,,,,,,,500.0,92051.0,92051.0,91551.0,91551.0,,,,,,0.0,No Match,2000.0,91551.0,91550.0,89554.0,,0,0.0,89554.0,NegFace,17F_FO.bmp,lure
Emo_Nback_20180527,1,Behavioral,"['1', 'num_1', 'left', '2', 'num_2', 'right']",0,0,0,Emo_Nback_20180527_v1-ABCD1234,1.0.0.1180,Verdana,1,Right,60.2729473979,ABCD1234,"['2', 'num_2', 'right']",1,Professional,2.0.10.356,2.0.10.356,06/25/2018,22:10:20,Stimuli/,2.0.10.252,0,1,0,160,['space'],3.0,2-Back,,,,,,,,,,,,,,,,500.0,94551.0,94551.0,94051.0,94051.0,,,,,,0.0,No Match,2000.0,94051.0,94051.0,92056.0,,0,0.0,92055.0,NegFace,BM045_FO.bmp,lure
Emo_Nback_20180527,1,Behavioral,"['1', 'num_1', 'left', '2', 'num_2', 'right']",0,0,0,Emo_Nback_20180527_v1-ABCD1234,1.0.0.1180,Verdana,1,Right,60.2729473979,ABCD1234,"['2', 'num_2', 'right']",1,Professional,2.0.10.356,2.0.10.356,06/25/2018,22:10:20,Stimuli/,2.0.10.252,0,1,0,160,['space'],3.0,2-Back,,,,,,,,,,,,,,,,500.0,97052.0,97052.0,96552.0,96552.0,,,,,,0.0,No Match,2000.0,96552.0,96552.0,94556.0,,0,0.0,94555.0,NegFace,9F_FO.bmp,nonlure
Emo_Nback_20180527,1,Behavioral,"['1', 'num_1', 'left', '2', 'num_2', 'right']",0,0,0,Emo_Nback_20180527_v1-ABCD1234,1.0.0.1180,Verdana,1,Right,60.2729473979,ABCD1234,"['2', 'num_2', 'right']",1,Professional,2.0.10.356,2.0.10.356,06/25/2018,22:10:20,Stimuli/,2.0.10.252,0,1,0,160,['space'],3.0,2-Back,,,,,,,,,,,,,,,,500.0,99552.0,99552.0,99053.0,99053.0,,,,,,0.0,No Match,2000.0,99053.0,99053.0,97056.0,,0,0.0,97056.0,NegFace,WM004_FO.bmp,nonlure
Emo_Nback_20180527,1,Behavioral,"['1', 'num_1', 'left', '2', 'num_2', 'right']",0,0,0,Emo_Nback_20180527_v1-ABCD1234,1.0.0.1180,Verdana,1,Right,60.2729473979,ABCD1234,"['2', 'num_2', 'right']",1,Professional,2.0.10.356,2.0.10.356,06/25/2018,22:10:20,Stimuli/,2.0.10.252,0,1,0,160,['space'],3.0,2-Back,,,,,,,,,,,,,,,,500.0,102052.0,102052.0,101552.0,101552.0,,,,,,0.0,Match,2000.0,101552.0,101552.0,99556.0,,0,0.0,99556.0,NegFace,9F_FO.bmp,target
Emo_Nback_20180527,1,Behavioral,"['1', 'num_1', 'left', '2', 'num_2', 'right']",0,0,0,Emo_Nback_20180527_v1-ABCD1234,1.0.0.1180,Verdana,1,Right,60.2729473979,ABCD1234,"['2', 'num_2', 'right']",1,Professional,2.0.10.356,2.0.10.356,06/25/2018,22:10:20,Stimuli/,2.0.10.252,0,1,0,160,['space'],3.0,2-Back,,,,,,,,,,,,,,,,500.0,104552.0,104552.0,104053.0,104053.0,,,,,,0.0,No Match,2000.0,104053.0,104053.0,102056.0,,0,0.0,102056.0,NegFace,BF06_FO.bmp,nonlure
Emo_Nback_20180527,1,Behavioral,"['1', 'num_1', 'left', '2', 'num_2', 'right']",0,0,0,Emo_Nback_20180527_v1-ABCD1234,1.0.0.1180,Verdana,1,Right,60.2729473979,ABCD1234,"['2', 'num_2', 'right']",1,Professional,2.0.10.356,2.0.10.356,06/25/2018,22:10:20,Stimuli/,2.0.10.252,0,1,0,160,['space'],4.0,Cue0Back,,,,,,500.0,105054.0,105054.0,104556.0,104556.0,2500.0,107554.0,107554.0,105055.0,105054.0,,,,,,,,,,,,,,,,,,0,,,Faces,34M_HO.bmp,target
Emo_Nback_20180527,1,Behavioral,"['1', 'num_1', 'left', '2', 'num_2', 'right']",0,0,0,Emo_Nback_20180527_v1-ABCD1234,1.0.0.1180,Verdana,1,Right,60.2729473979,ABCD1234,"['2', 'num_2', 'right']",1,Professional,2.0.10.356,2.0.10.356,06/25/2018,22:10:20,Stimuli/,2.0.10.252,0,1,0,160,['space'],4.0,0-Back,,,,,,,,,,,,,,,,500.0,110054.0,110053.0,109555.0,109555.0,,,,,,0.0,Match,2000.0,109555.0,109555.0,107558.0,,0,0.0,107558.0,PosFace,34M_HO.bmp,target
Emo_Nback_20180527,1,Behavioral,"['1', 'num_1', 'left', '2', 'num_2', 'right']",0,0,0,Emo_Nback_20180527_v1-ABCD1234,1.0.0.1180,Verdana,1,Right,60.2729473979,ABCD1234,"['2', 'num_2', 'right']",1,Professional,2.0.10.356,2.0.10.356,06/25/2018,22:10:20,Stimuli/,2.0.10.252,0,1,0,160,['space'],4.0,0-Back,,,,,,,,,,,,,,,,500.0,112554.0,112554.0,112054.0,112054.0,,,,,,0.0,No Match,2000.0,112054.0,112054.0,110058.0,,0,0.0,110058.0,PosFace,BM08_HO.bmp,nonlure
Emo_Nback_20180527,1,Behavioral,"['1', 'num_1', 'left', '2', 'num_2', 'right']",0,0,0,Emo_Nback_20180527_v1-ABCD1234,1.0.0.1180,Verdana,1,Right,60.2729473979,ABCD1234,"['2', 'num_2', 'right']",1,Professional,2.0.10.356,2.0.10.356,06/25/2018,22:10:20,Stimuli/,2.0.10.252,0,1,0,160,['space'],4.0,0-Back,,,,,,,,,,,,,,,,500.0,115055.0,115055.0,114554.0,114554.0,,,,,,0.0,No Match,2000.0,114554.0,114553.0,112559.0,,0,0.0,112558.0,PosFace,HF04_HO.bmp,nonlure
Emo_Nback_20180527,1,Behavioral,"['1', 'num_1', 'left', '2', 'num_2', 'right']",0,0,0,Emo_Nback_20180527_v1-ABCD1234,1.0.0.1180,Verdana,1,Right,60.2729473979,ABCD1234,"['2', 'num_2', 'right']",1,Professional,2.0.10.356,2.0.10.356,06/25/2018,22:10:20,Stimuli/,2.0.10.252,0,1,0,160,['space'],4.0,0-Back,,,,,,,,,,,,,,,,500.0,117554.0,117554.0,117054.0,117054.0,,,,,,0.0,No Match,2000.0,117054.0,117054.0,115060.0,,0,0.0,115060.0,PosFace,BF002_HO.bmp,nonlure
Emo_Nback_20180527,1,Behavioral,"['1', 'num_1', 'left', '2', 'num_2', 'right']",0,0,0,Emo_Nback_20180527_v1-ABCD1234,1.0.0.1180,Verdana,1,Right,60.2729473979,ABCD1234,"['2', 'num_2', 'right']",1,Professional,2.0.10.356,2.0.10.356,06/25/2018,22:10:20,Stimuli/,2.0.10.252,0,1,0,160,['space'],4.0,0-Back,,,,,,,,,,,,,,,,500.0,120056.0,120056.0,119554.0,119554.0,,,,,,0.0,No Match,2000.0,119554.0,119554.0,117558.0,,0,0.0,117558.0,PosFace,BM08_HO.bmp,lure
Emo_Nback_20180527,1,Behavioral,"['1', 'num_1', 'left', '2', 'num_2', 'right']",0,0,0,Emo_Nback_20180527_v1-ABCD1234,1.0.0.1180,Verdana,1,Right,60.2729473979,ABCD1234,"['2', 'num_2', 'right']",1,Professional,2.0.10.356,2.0.10.356,06/25/2018,22:10:20,Stimuli/,2.0.10.252,0,1,0,160,['space'],4.0,0-Back,,,,,,,,,,,,,,,,500.0,122555.0,122555.0,122055.0,122055.0,,,,,,0.0,No Match,2000.0,122055.0,122055.0,120061.0,,0,0.0,120060.0,PosFace,45M_HO.bmp,nonlure
Emo_Nback_20180527,1,Behavioral,"['1', 'num_1', 'left', '2', 'num_2', 'right']",0,0,0,Emo_Nback_20180527_v1-ABCD1234,1.0.0.1180,Verdana,1,Right,60.2729473979,ABCD1234,"['2', 'num_2', 'right']",1,Professional,2.0.10.356,2.0.10.356,06/25/2018,22:10:20,Stimuli/,2.0.10.252,0,1,0,160,['space'],4.0,0-Back,,,,,,,,,,,,,,,,500.0,125055.0,125055.0,124557.0,124557.0,,,,,,0.0,No Match,2000.0,124557.0,124556.0,122560.0,,0,0.0,122560.0,PosFace,45M_HO.bmp,lure
Emo_Nback_20180527,1,Behavioral,"['1', 'num_1', 'left', '2', 'num_2', 'right']",0,0,0,Emo_Nback_20180527_v1-ABCD1234,1.0.0.1180,Verdana,1,Right,60.2729473979,ABCD1234,"['2', 'num_2', 'right']",1,Professional,2.0.10.356,2.0.10.356,06/25/2018,22:10:20,Stimuli/,2.0.10.252,0,1,0,160,['space'],4.0,0-Back,,,,,,,,,,,,,,,,500.0,127555.0,127555.0,127056.0,127056.0,,,,,,0.0,No Match,2000.0,127056.0,127055.0,125059.0,,0,0.0,125059.0,PosFace,BF002_HO.bmp,lure
Emo_Nback_20180527,1,Behavioral,"['1', 'num_1', 'left', '2', 'num_2', 'right']",0,0,0,Emo_Nback_20180527_v1-ABCD1234,1.0.0.1180,Verdana,1,Right,60.2729473979,ABCD1234,"['2', 'num_2', 'right']",1,Professional,2.0.10.356,2.0.10.356,06/25/2018,22:10:20,Stimuli/,2.0.10.252,0,1,0,160,['space'],4.0,0-Back,,,,,,,,,,,,,,,,500.0,130058.0,130058.0,129556.0,129556.0,,,,,,0.0,Match,2000.0,129556.0,129556.0,127559.0,,0,0.0,127559.0,PosFace,34M_HO.bmp,target
Emo_Nback_20180527,1,Behavioral,"['1', 'num_1', 'left', '2', 'num_2', 'right']",0,0,0,Emo_Nback_20180527_v1-ABCD1234,1.0.0.1180,Verdana,1,Right,60.2729473979,ABCD1234,"['2', 'num_2', 'right']",1,Professional,2.0.10.356,2.0.10.356,06/25/2018,22:10:20,Stimuli/,2.0.10.252,0,1,0,160,['space'],4.0,0-Back,,,,,,,,,,,,,,,,500.0,132556.0,132556.0,132056.0,132056.0,,,,,,0.0,No Match,2000.0,132056.0,132056.0,130062.0,,0,0.0,130062.0,PosFace,WF07_HO.bmp,nonlure
Emo_Nback_20180527,1,Behavioral,"['1', 'num_1', 'left', '2', 'num_2', 'right']",0,0,0,Emo_Nback_20180527_v1-ABCD1234,1.0.0.1180,Verdana,1,Right,60.2729473979,ABCD1234,"['2', 'num_2', 'right']",1,Professional,2.0.10.356,2.0.10.356,06/25/2018,22:10:20,Stimuli/,2.0.10.252,0,1,0,160,['space'],None,Fix15secPROC,,,,,,,,,,,,,,,,,,,,,15000.0,147560.0,147560.0,132558.0,132558.0,,,,,,,,0,,,None,None,None
Emo_Nback_20180527,1,Behavioral,"['1', 'num_1', 'left', '2', 'num_2', 'right']",0,0,0,Emo_Nback_20180527_v1-ABCD1234,1.0.0.1180,Verdana,1,Right,60.2729473979,ABCD1234,"['2', 'num_2', 'right']",1,Professional,2.0.10.356,2.0.10.356,06/25/2018,22:10:20,Stimuli/,2.0.10.252,0,1,0,160,['space'],5.0,Cue0Back,,,,,,500.0,148059.0,148059.0,147564.0,147564.0,2500.0,150559.0,150559.0,148059.0,148059.0,,,,,,,,,,,,,,,,,,0,,,Place,PL_001_92012.bmp,target
Emo_Nback_20180527,1,Behavioral,"['1', 'num_1', 'left', '2', 'num_2', 'right']",0,0,0,Emo_Nback_20180527_v1-ABCD1234,1.0.0.1180,Verdana,1,Right,60.2729473979,ABCD1234,"['2', 'num_2', 'right']",1,Professional,2.0.10.356,2.0.10.356,06/25/2018,22:10:20,Stimuli/,2.0.10.252,0,1,0,160,['space'],5.0,0-Back,,,,,,,,,,,,,,,,500.0,153042.0,153042.0,152543.0,152543.0,,,,,,0.0,No Match,2000.0,152543.0,152543.0,150564.0,,0,0.0,150563.0,Place,PL_003_92016.bmp,nonlure
Emo_Nback_20180527,1,Behavioral,"['1', 'num_1', 'left', '2', 'num_2', 'right']",0,0,0,Emo_Nback_20180527_v1-ABCD1234,1.0.0.1180,Verdana,1,Right,60.2729473979,ABCD1234,"['2', 'num_2', 'right']",1,Professional,2.0.10.356,2.0.10.356,06/25/2018,22:10:20,Stimuli/,2.0.10.252,0,1,0,160,['space'],5.0,0-Back,,,,,,,,,,,,,,,,500.0,155561.0,155561.0,155042.0,155042.0,,,,,,0.0,No Match,2000.0,155042.0,155042.0,153047.0,,0,0.0,153046.0,Place,PL_003_92016.bmp,lure
Emo_Nback_20180527,1,Behavioral,"['1', 'num_1', 'left', '2', 'num_2', 'right']",0,0,0,Emo_Nback_20180527_v1-ABCD1234,1.0.0.1180,Verdana,1,Right,60.2729473979,ABCD1234,"['2', 'num_2', 'right']",1,Professional,2.0.10.356,2.0.10.356,06/25/2018,22:10:20,Stimuli/,2.0.10.252,0,1,0,160,['space'],5.0,0-Back,,,,,,,,,,,,,,,,500.0,158043.0,158043.0,157543.0,157543.0,,,,,,0.0,No Match,2000.0,157543.0,157543.0,155565.0,,0,0.0,155565.0,Place,PL_006_92025.bmp,nonlure
Emo_Nback_20180527,1,Behavioral,"['1', 'num_1', 'left', '2', 'num_2', 'right']",0,0,0,Emo_Nback_20180527_v1-ABCD1234,1.0.0.1180,Verdana,1,Right,60.2729473979,ABCD1234,"['2', 'num_2', 'right']",1,Professional,2.0.10.356,2.0.10.356,06/25/2018,22:10:20,Stimuli/,2.0.10.252,0,1,0,160,['space'],5.0,0-Back,,,,,,,,,,,,,,,,500.0,160543.0,160543.0,160043.0,160043.0,,,,,,0.0,Match,2000.0,160043.0,160043.0,158048.0,,0,0.0,158047.0,Place,PL_001_92012.bmp,target
Emo_Nback_20180527,1,Behavioral,"['1', 'num_1', 'left', '2', 'num_2', 'right']",0,0,0,Emo_Nback_20180527_v1-ABCD1234,1.0.0.1180,Verdana,1,Right,60.2729473979,ABCD1234,"['2', 'num_2', 'right']",1,Professional,2.0.10.356,2.0.10.356,06/25/2018,22:10:20,Stimuli/,2.0.10.252,0,1,0,160,['space'],5.0,0-Back,,,,,,,,,,,,,,,,500.0,163045.0,163045.0,162544.0,162544.0,,,,,,0.0,No Match,2000.0,162544.0,162544.0,160548.0,,0,0.0,160547.0,Place,PL_004_92023.bmp,nonlure
Emo_Nback_20180527,1,Behavioral,"['1', 'num_1', 'left', '2', 'num_2', 'right']",0,0,0,Emo_Nback_20180527_v1-ABCD1234,1.0.0.1180,Verdana,1,Right,60.2729473979,ABCD1234,"['2', 'num_2', 'right']",1,Professional,2.0.10.356,2.0.10.356,06/25/2018,22:10:20,Stimuli/,2.0.10.252,0,1,0,160,['space'],5.0,0-Back,,,,,,,,,,,,,,,,500.0,165545.0,165545.0,165046.0,165046.0,,,,,,0.0,No Match,2000.0,165046.0,165046.0,163050.0,,0,0.0,163049.0,Place,PL_005_92024.bmp,nonlure
Emo_Nback_20180527,1,Behavioral,"['1', 'num_1', 'left', '2', 'num_2', 'right']",0,0,0,Emo_Nback_20180527_v1-ABCD1234,1.0.0.1180,Verdana,1,Right,60.2729473979,ABCD1234,"['2', 'num_2', 'right']",1,Professional,2.0.10.356,2.0.10.356,06/25/2018,22:10:20,Stimuli/,2.0.10.252,0,1,0,160,['space'],5.0,0-Back,,,,,,,,,,,,,,,,500.0,168044.0,168044.0,167544.0,167544.0,,,,,,0.0,Match,2000.0,167544.0,167544.0,165549.0,,0,0.0,165549.0,Place,PL_001_92012.bmp,target
Emo_Nback_20180527,1,Behavioral,"['1', 'num_1', 'left', '2', 'num_2', 'right']",0,0,0,Emo_Nback_20180527_v1-ABCD1234,1.0.0.1180,Verdana,1,Right,60.2729473979,ABCD1234,"['2', 'num_2', 'right']",1,Professional,2.0.10.356,2.0.10.356,06/25/2018,22:10:20,Stimuli/,2.0.10.252,0,1,0,160,['space'],5.0,0-Back,,,,,,,,,,,,,,,,500.0,170544.0,170544.0,170045.0,170045.0,,,,,,0.0,No Match,2000.0,170045.0,170045.0,168049.0,,0,0.0,168048.0,Place,PL_002_92014.bmp,nonlure
Emo_Nback_20180527,1,Behavioral,"['1', 'num_1', 'left', '2', 'num_2', 'right']",0,0,0,Emo_Nback_20180527_v1-ABCD1234,1.0.0.1180,Verdana,1,Right,60.2729473979,ABCD1234,"['2', 'num_2', 'right']",1,Professional,2.0.10.356,2.0.10.356,06/25/2018,22:10:20,Stimuli/,2.0.10.252,0,1,0,160,['space'],5.0,0-Back,,,,,,,,,,,,,,,,500.0,173047.0,173047.0,172545.0,172545.0,,,,,,0.0,No Match,2000.0,172545.0,172545.0,170549.0,,0,0.0,170548.0,Place,PL_004_92023.bmp,lure
Emo_Nback_20180527,1,Behavioral,"['1', 'num_1', 'left', '2', 'num_2', 'right']",0,0,0,Emo_Nback_20180527_v1-ABCD1234,1.0.0.1180,Verdana,1,Right,60.2729473979,ABCD1234,"['2', 'num_2', 'right']",1,Professional,2.0.10.356,2.0.10.356,06/25/2018,22:10:20,Stimuli/,2.0.10.252,0,1,0,160,['space'],5.0,0-Back,,,,,,,,,,,,,,,,500.0,175547.0,175547.0,175046.0,175046.0,,,,,,0.0,No Match,2000.0,175046.0,175046.0,173051.0,,0,0.0,173051.0,Place,PL_006_92025.bmp,lure
Emo_Nback_20180527,1,Behavioral,"['1', 'num_1', 'left', '2', 'num_2', 'right']",0,0,0,Emo_Nback_20180527_v1-ABCD1234,1.0.0.1180,Verdana,1,Right,60.2729473979,ABCD1234,"['2', 'num_2', 'right']",1,Professional,2.0.10.356,2.0.10.356,06/25/2018,22:10:20,Stimuli/,2.0.10.252,0,1,0,160,['space'],6.0,Cue2Back,2500.0,178547.0,178547.0,176046.0,176046.0,500.0,176046.0,176046.0,175552.0,175552.0,,,,,,,,,,,,,,,,,,,,,,,0,,,Faces,None,None
Emo_Nback_20180527,1,Behavioral,"['1', 'num_1', 'left', '2', 'num_2', 'right']",0,0,0,Emo_Nback_20180527_v1-ABCD1234,1.0.0.1180,Verdana,1,Right,60.2729473979,ABCD1234,"['2', 'num_2', 'right']",1,Professional,2.0.10.356,2.0.10.356,06/25/2018,22:10:20,Stimuli/,2.0.10.252,0,1,0,160,['space'],6.0,2-Back,,,,,,,,,,,,,,,,500.0,181046.0,181046.0,180547.0,180547.0,,,,,,0.0,No Match,2000.0,180547.0,180547.0,178551.0,,0,0.0,178550.0,NeutFace,AM228_NC.bmp,nonlure
Emo_Nback_20180527,1,Behavioral,"['1', 'num_1', 'left', '2', 'num_2', 'right']",0,0,0,Emo_Nback_20180527_v1-ABCD1234,1.0.0.1180,Verdana,1,Right,60.2729473979,ABCD1234,"['2', 'num_2', 'right']",1,Professional,2.0.10.356,2.0.10.356,06/25/2018,22:10:20,Stimuli/,2.0.10.252,0,1,0,160,['space'],6.0,2-Back,,,,,,,,,,,,,,,,500.0,183547.0,183547.0,183048.0,183048.0,,,,,,0.0,No Match,2000.0,183048.0,183048.0,181051.0,,0,0.0,181051.0,NeutFace,26M_NC.bmp,nonlure
Emo_Nback_20180527,1,Behavioral,"['1', 'num_1', 'left', '2', 'num_2', 'right']",0,0,0,Emo_Nback_20180527_v1-ABCD1234,1.0.0.1180,Verdana,1,Right,60.2729473979,ABCD1234,"['2', 'num_2', 'right']",1,Professional,2.0.10.356,2.0.10.356,06/25/2018,22:10:20,Stimuli/,2.0.10.252,0,1,0,160,['space'],6.0,2-Back,,,,,,,,,,,,,,,,500.0,186048.0,186048.0,185547.0,185547.0,,,,,,0.0,Match,2000.0,185547.0,185547.0,183551.0,,0,0.0,183551.0,NeutFace,AM228_NC.bmp,target
Emo_Nback_20180527,1,Behavioral,"['1', 'num_1', 'left', '2', 'num_2', 'right']",0,0,0,Emo_Nback_20180527_v1-ABCD1234,1.0.0.1180,Verdana,1,Right,60.2729473979,ABCD1234,"['2', 'num_2', 'right']",1,Professional,2.0.10.356,2.0.10.356,06/25/2018,22:10:20,Stimuli/,2.0.10.252,0,1,0,160,['space'],6.0,2-Back,,,,,,,,,,,,,,,,500.0,188548.0,188548.0,188047.0,188047.0,,,,,,0.0,No Match,2000.0,188047.0,188047.0,186053.0,,0,0.0,186053.0,NeutFace,LF227_NC.bmp,nonlure
Emo_Nback_20180527,1,Behavioral,"['1', 'num_1', 'left', '2', 'num_2', 'right']",0,0,0,Emo_Nback_20180527_v1-ABCD1234,1.0.0.1180,Verdana,1,Right,60.2729473979,ABCD1234,"['2', 'num_2', 'right']",1,Professional,2.0.10.356,2.0.10.356,06/25/2018,22:10:20,Stimuli/,2.0.10.252,0,1,0,160,['space'],6.0,2-Back,,,,,,,,,,,,,,,,500.0,191048.0,191048.0,190549.0,190549.0,,,,,,0.0,No Match,2000.0,190549.0,190549.0,188552.0,,0,0.0,188552.0,NeutFace,26M_NC.bmp,lure
Emo_Nback_20180527,1,Behavioral,"['1', 'num_1', 'left', '2', 'num_2', 'right']",0,0,0,Emo_Nback_20180527_v1-ABCD1234,1.0.0.1180,Verdana,1,Right,60.2729473979,ABCD1234,"['2', 'num_2', 'right']",1,Professional,2.0.10.356,2.0.10.356,06/25/2018,22:10:20,Stimuli/,2.0.10.252,0,1,0,160,['space'],6.0,2-Back,,,,,,,,,,,,,,,,500.0,193548.0,193548.0,193049.0,193049.0,,,,,,0.0,Match,2000.0,193049.0,193049.0,191053.0,,0,0.0,191052.0,NeutFace,LF227_NC.bmp,target
Emo_Nback_20180527,1,Behavioral,"['1', 'num_1', 'left', '2', 'num_2', 'right']",0,0,0,Emo_Nback_20180527_v1-ABCD1234,1.0.0.1180,Verdana,1,Right,60.2729473979,ABCD1234,"['2', 'num_2', 'right']",1,Professional,2.0.10.356,2.0.10.356,06/25/2018,22:10:20,Stimuli/,2.0.10.252,0,1,0,160,['space'],6.0,2-Back,,,,,,,,,,,,,,,,500.0,196049.0,196048.0,195548.0,195548.0,,,,,,0.0,No Match,2000.0,195548.0,195548.0,193553.0,,0,0.0,193553.0,NeutFace,AF206_NC.bmp,nonlure
Emo_Nback_20180527,1,Behavioral,"['1', 'num_1', 'left', '2', 'num_2', 'right']",0,0,0,Emo_Nback_20180527_v1-ABCD1234,1.0.0.1180,Verdana,1,Right,60.2729473979,ABCD1234,"['2', 'num_2', 'right']",1,Professional,2.0.10.356,2.0.10.356,06/25/2018,22:10:20,Stimuli/,2.0.10.252,0,1,0,160,['space'],6.0,2-Back,,,,,,,,,,,,,,,,500.0,198549.0,198549.0,198049.0,198049.0,,,,,,0.0,No Match,2000.0,198049.0,198049.0,196053.0,,0,0.0,196052.0,NeutFace,AF206_NC.bmp,lure
Emo_Nback_20180527,1,Behavioral,"['1', 'num_1', 'left', '2', 'num_2', 'right']",0,0,0,Emo_Nback_20180527_v1-ABCD1234,1.0.0.1180,Verdana,1,Right,60.2729473979,ABCD1234,"['2', 'num_2', 'right']",1,Professional,2.0.10.356,2.0.10.356,06/25/2018,22:10:20,Stimuli/,2.0.10.252,0,1,0,160,['space'],6.0,2-Back,,,,,,,,,,,,,,,,500.0,201049.0,201048.0,200549.0,200549.0,,,,,,0.0,No Match,2000.0,200549.0,200549.0,198553.0,,0,0.0,198553.0,NeutFace,BM03_NC.bmp,nonlure
Emo_Nback_20180527,1,Behavioral,"['1', 'num_1', 'left', '2', 'num_2', 'right']",0,0,0,Emo_Nback_20180527_v1-ABCD1234,1.0.0.1180,Verdana,1,Right,60.2729473979,ABCD1234,"['2', 'num_2', 'right']",1,Professional,2.0.10.356,2.0.10.356,06/25/2018,22:10:20,Stimuli/,2.0.10.252,0,1,0,160,['space'],6.0,2-Back,,,,,,,,,,,,,,,,500.0,203550.0,203550.0,203049.0,203049.0,,,,,,0.0,No Match,2000.0,203049.0,203049.0,201052.0,,0,0.0,201052.0,NeutFace,WF012_NC.bmp,nonlure
Emo_Nback_20180527,1,Behavioral,"['1', 'num_1', 'left', '2', 'num_2', 'right']",0,0,0,Emo_Nback_20180527_v1-ABCD1234,1.0.0.1180,Verdana,1,Right,60.2729473979,ABCD1234,"['2', 'num_2', 'right']",1,Professional,2.0.10.356,2.0.10.356,06/25/2018,22:10:20,Stimuli/,2.0.10.252,0,1,0,160,['space'],None,Fix15secPROC,,,,,,,,,,,,,,,,,,,,,15000.0,218553.0,218553.0,203552.0,203552.0,,,,,,,,0,,,None,None,None
Emo_Nback_20180527,1,Behavioral,"['1', 'num_1', 'left', '2', 'num_2', 'right']",0,0,0,Emo_Nback_20180527_v1-ABCD1234,1.0.0.1180,Verdana,1,Right,60.2729473979,ABCD1234,"['2', 'num_2', 'right']",1,Professional,2.0.10.356,2.0.10.356,06/25/2018,22:10:20,Stimuli/,2.0.10.252,0,1,0,160,['space'],7.0,Cue0Back,,,,,,500.0,219052.0,219052.0,218557.0,218557.0,2500.0,221552.0,221551.0,219052.0,219052.0,,,,,,,,,,,,,,,,,,0,,,Faces,39M_FO.bmp,target
Emo_Nback_20180527,1,Behavioral,"['1', 'num_1', 'left', '2', 'num_2', 'right']",0,0,0,Emo_Nback_20180527_v1-ABCD1234,1.0.0.1180,Verdana,1,Right,60.2729473979,ABCD1234,"['2', 'num_2', 'right']",1,Professional,2.0.10.356,2.0.10.356,06/25/2018,22:10:20,Stimuli/,2.0.10.252,0,1,0,160,['space'],7.0,0-Back,,,,,,,,,,,,,,,,500.0,224052.0,224052.0,223554.0,223554.0,,,,,,0.0,No Match,2000.0,223554.0,223554.0,221556.0,,0,0.0,221555.0,NegFace,BF003_FO.bmp,nonlure
Emo_Nback_20180527,1,Behavioral,"['1', 'num_1', 'left', '2', 'num_2', 'right']",0,0,0,Emo_Nback_20180527_v1-ABCD1234,1.0.0.1180,Verdana,1,Right,60.2729473979,ABCD1234,"['2', 'num_2', 'right']",1,Professional,2.0.10.356,2.0.10.356,06/25/2018,22:10:20,Stimuli/,2.0.10.252,0,1,0,160,['space'],7.0,0-Back,,,,,,,,,,,,,,,,500.0,226553.0,226553.0,226053.0,226053.0,,,,,,0.0,No Match,2000.0,226053.0,226053.0,224056.0,,0,0.0,224056.0,NegFace,HM05_FO.bmp,nonlure
Emo_Nback_20180527,1,Behavioral,"['1', 'num_1', 'left', '2', 'num_2', 'right']",0,0,0,Emo_Nback_20180527_v1-ABCD1234,1.0.0.1180,Verdana,1,Right,60.2729473979,ABCD1234,"['2', 'num_2', 'right']",1,Professional,2.0.10.356,2.0.10.356,06/25/2018,22:10:20,Stimuli/,2.0.10.252,0,1,0,160,['space'],7.0,0-Back,,,,,,,,,,,,,,,,500.0,229053.0,229053.0,228553.0,228553.0,,,,,,0.0,No Match,2000.0,228553.0,228553.0,226557.0,,0,0.0,226557.0,NegFace,HM05_FO.bmp,lure
Emo_Nback_20180527,1,Behavioral,"['1', 'num_1', 'left', '2', 'num_2', 'right']",0,0,0,Emo_Nback_20180527_v1-ABCD1234,1.0.0.1180,Verdana,1,Right,60.2729473979,ABCD1234,"['2', 'num_2', 'right']",1,Professional,2.0.10.356,2.0.10.356,06/25/2018,22:10:20,Stimuli/,2.0.10.252,0,1,0,160,['space'],7.0,0-Back,,,,,,,,,,,,,,,,500.0,231554.0,231553.0,231054.0,231054.0,,,,,,0.0,No Match,2000.0,231054.0,231054.0,229058.0,,0,0.0,229057.0,NegFace,10F_FO.bmp,nonlure
Emo_Nback_20180527,1,Behavioral,"['1', 'num_1', 'left', '2', 'num_2', 'right']",0,0,0,Emo_Nback_20180527_v1-ABCD1234,1.0.0.1180,Verdana,1,Right,60.2729473979,ABCD1234,"['2', 'num_2', 'right']",1,Professional,2.0.10.356,2.0.10.356,06/25/2018,22:10:20,Stimuli/,2.0.10.252,0,1,0,160,['space'],7.0,0-Back,,,,,,,,,,,,,,,,500.0,234055.0,234055.0,233554.0,233554.0,,,,,,0.0,No Match,2000.0,233554.0,233554.0,231558.0,,0,0.0,231558.0,NegFace,BF09_FO.bmp,nonlure
Emo_Nback_20180527,1,Behavioral,"['1', 'num_1', 'left', '2', 'num_2', 'right']",0,0,0,Emo_Nback_20180527_v1-ABCD1234,1.0.0.1180,Verdana,1,Right,60.2729473979,ABCD1234,"['2', 'num_2', 'right']",1,Professional,2.0.10.356,2.0.10.356,06/25/2018,22:10:20,Stimuli/,2.0.10.252,0,1,0,160,['space'],7.0,0-Back,,,,,,,,,,,,,,,,500.0,236556.0,236556.0,236054.0,236054.0,,,,,,0.0,No Match,2000.0,236054.0,236054.0,234060.0,,0,0.0,234059.0,NegFace,28M_FO.bmp,nonlure
Emo_Nback_20180527,1,Behavioral,"['1', 'num_1', 'left', '2', 'num_2', 'right']",0,0,0,Emo_Nback_20180527_v1-ABCD1234,1.0.0.1180,Verdana,1,Right,60.2729473979,ABCD1234,"['2', 'num_2', 'right']",1,Professional,2.0.10.356,2.0.10.356,06/25/2018,22:10:20,Stimuli/,2.0.10.252,0,1,0,160,['space'],7.0,0-Back,,,,,,,,,,,,,,,,500.0,239055.0,239055.0,238555.0,238555.0,,,,,,0.0,No Match,2000.0,238555.0,238555.0,236561.0,,0,0.0,236561.0,NegFace,BF003_FO.bmp,lure
Emo_Nback_20180527,1,Behavioral,"['1', 'num_1', 'left', '2', 'num_2', 'right']",0,0,0,Emo_Nback_20180527_v1-ABCD1234,1.0.0.1180,Verdana,1,Right,60.2729473979,ABCD1234,"['2', 'num_2', 'right']",1,Professional,2.0.10.356,2.0.10.356,06/25/2018,22:10:20,Stimuli/,2.0.10.252,0,1,0,160,['space'],7.0,0-Back,,,,,,,,,,,,,,,,500.0,241555.0,241555.0,241055.0,241055.0,,,,,,0.0,Match,2000.0,241055.0,241055.0,239060.0,,0,0.0,239059.0,NegFace,39M_FO.bmp,target
Emo_Nback_20180527,1,Behavioral,"['1', 'num_1', 'left', '2', 'num_2', 'right']",0,0,0,Emo_Nback_20180527_v1-ABCD1234,1.0.0.1180,Verdana,1,Right,60.2729473979,ABCD1234,"['2', 'num_2', 'right']",1,Professional,2.0.10.356,2.0.10.356,06/25/2018,22:10:20,Stimuli/,2.0.10.252,0,1,0,160,['space'],7.0,0-Back,,,,,,,,,,,,,,,,500.0,244055.0,244055.0,243556.0,243556.0,,,,,,0.0,No Match,2000.0,243556.0,243556.0,241560.0,,0,0.0,241559.0,NegFace,10F_FO.bmp,lure
Emo_Nback_20180527,1,Behavioral,"['1', 'num_1', 'left', '2', 'num_2', 'right']",0,0,0,Emo_Nback_20180527_v1-ABCD1234,1.0.0.1180,Verdana,1,Right,60.2729473979,ABCD1234,"['2', 'num_2', 'right']",1,Professional,2.0.10.356,2.0.10.356,06/25/2018,22:10:20,Stimuli/,2.0.10.252,0,1,0,160,['space'],7.0,0-Back,,,,,,,,,,,,,,,,500.0,246554.0,246554.0,246056.0,246056.0,,,,,,0.0,Match,2000.0,246056.0,246056.0,244059.0,,0,0.0,244059.0,NegFace,39M_FO.bmp,target
Emo_Nback_20180527,1,Behavioral,"['1', 'num_1', 'left', '2', 'num_2', 'right']",0,0,0,Emo_Nback_20180527_v1-ABCD1234,1.0.0.1180,Verdana,1,Right,60.2729473979,ABCD1234,"['2', 'num_2', 'right']",1,Professional,2.0.10.356,2.0.10.356,06/25/2018,22:10:20,Stimuli/,2.0.10.252,0,1,0,160,['space'],8.0,Cue2Back,2500.0,249556.0,249556.0,247055.0,247055.0,500.0,247055.0,247055.0,246559.0,246559.0,,,,,,,,,,,,,,,,,,,,,,,0,,,Faces,None,None
Emo_Nback_20180527,1,Behavioral,"['1', 'num_1', 'left', '2', 'num_2', 'right']",0,0,0,Emo_Nback_20180527_v1-ABCD1234,1.0.0.1180,Verdana,1,Right,60.2729473979,ABCD1234,"['2', 'num_2', 'right']",1,Professional,2.0.10.356,2.0.10.356,06/25/2018,22:10:20,Stimuli/,2.0.10.252,0,1,0,160,['space'],8.0,2-Back,,,,,,,,,,,,,,,,500.0,252055.0,252055.0,251556.0,251556.0,,,,,,0.0,No Match,2000.0,251556.0,251556.0,249560.0,,0,0.0,249560.0,Place,PL_007_92026.bmp,nonlure
Emo_Nback_20180527,1,Behavioral,"['1', 'num_1', 'left', '2', 'num_2', 'right']",0,0,0,Emo_Nback_20180527_v1-ABCD1234,1.0.0.1180,Verdana,1,Right,60.2729473979,ABCD1234,"['2', 'num_2', 'right']",1,Professional,2.0.10.356,2.0.10.356,06/25/2018,22:10:20,Stimuli/,2.0.10.252,0,1,0,160,['space'],8.0,2-Back,,,,,,,,,,,,,,,,500.0,254556.0,254556.0,254056.0,254056.0,,,,,,0.0,No Match,2000.0,254056.0,254056.0,252060.0,,0,0.0,252060.0,Place,PL_007_92026.bmp,lure
Emo_Nback_20180527,1,Behavioral,"['1', 'num_1', 'left', '2', 'num_2', 'right']",0,0,0,Emo_Nback_20180527_v1-ABCD1234,1.0.0.1180,Verdana,1,Right,60.2729473979,ABCD1234,"['2', 'num_2', 'right']",1,Professional,2.0.10.356,2.0.10.356,06/25/2018,22:10:20,Stimuli/,2.0.10.252,0,1,0,160,['space'],8.0,2-Back,,,,,,,,,,,,,,,,500.0,257056.0,257056.0,256557.0,256557.0,,,,,,0.0,No Match,2000.0,256557.0,256557.0,254560.0,,0,0.0,254560.0,Place,PL_010_92038.bmp,nonlure
Emo_Nback_20180527,1,Behavioral,"['1', 'num_1', 'left', '2', 'num_2', 'right']",0,0,0,Emo_Nback_20180527_v1-ABCD1234,1.0.0.1180,Verdana,1,Right,60.2729473979,ABCD1234,"['2', 'num_2', 'right']",1,Professional,2.0.10.356,2.0.10.356,06/25/2018,22:10:20,Stimuli/,2.0.10.252,0,1,0,160,['space'],8.0,2-Back,,,,,,,,,,,,,,,,500.0,259557.0,259557.0,259059.0,259059.0,,,,,,0.0,No Match,2000.0,259059.0,259059.0,257061.0,,0,0.0,257061.0,Place,PL_009_92037.bmp,nonlure
Emo_Nback_20180527,1,Behavioral,"['1', 'num_1', 'left', '2', 'num_2', 'right']",0,0,0,Emo_Nback_20180527_v1-ABCD1234,1.0.0.1180,Verdana,1,Right,60.2729473979,ABCD1234,"['2', 'num_2', 'right']",1,Professional,2.0.10.356,2.0.10.356,06/25/2018,22:10:20,Stimuli/,2.0.10.252,0,1,0,160,['space'],8.0,2-Back,,,,,,,,,,,,,,,,500.0,262058.0,262058.0,261558.0,261558.0,,,,,,0.0,Match,2000.0,261558.0,261558.0,259561.0,,0,0.0,259561.0,Place,PL_010_92038.bmp,target
Emo_Nback_20180527,1,Behavioral,"['1', 'num_1', 'left', '2', 'num_2', 'right']",0,0,0,Emo_Nback_20180527_v1-ABCD1234,1.0.0.1180,Verdana,1,Right,60.2729473979,ABCD1234,"['2', 'num_2', 'right']",1,Professional,2.0.10.356,2.0.10.356,06/25/2018,22:10:20,Stimuli/,2.0.10.252,0,1,0,160,['space'],8.0,2-Back,,,,,,,,,,,,,,,,500.0,264559.0,264559.0,264059.0,264059.0,,,,,,0.0,Match,2000.0,264059.0,264059.0,262063.0,,0,0.0,262063.0,Place,PL_009_92037.bmp,target
Emo_Nback_20180527,1,Behavioral,"['1', 'num_1', 'left', '2', 'num_2', 'right']",0,0,0,Emo_Nback_20180527_v1-ABCD1234,1.0.0.1180,Verdana,1,Right,60.2729473979,ABCD1234,"['2', 'num_2', 'right']",1,Professional,2.0.10.356,2.0.10.356,06/25/2018,22:10:20,Stimuli/,2.0.10.252,0,1,0,160,['space'],8.0,2-Back,,,,,,,,,,,,,,,,500.0,267058.0,267058.0,266543.0,266543.0,,,,,,0.0,No Match,2000.0,266543.0,266543.0,264564.0,,0,0.0,264563.0,Place,PL_008_92033.bmp,nonlure
Emo_Nback_20180527,1,Behavioral,"['1', 'num_1', 'left', '2', 'num_2', 'right']",0,0,0,Emo_Nback_20180527_v1-ABCD1234,1.0.0.1180,Verdana,1,Right,60.2729473979,ABCD1234,"['2', 'num_2', 'right']",1,Professional,2.0.10.356,2.0.10.356,06/25/2018,22:10:20,Stimuli/,2.0.10.252,0,1,0,160,['space'],8.0,2-Back,,,,,,,,,,,,,,,,500.0,269543.0,269543.0,269043.0,269043.0,,,,,,0.0,No Match,2000.0,269043.0,269042.0,267062.0,,0,0.0,267062.0,Place,PL_012_92047.bmp,nonlure
Emo_Nback_20180527,1,Behavioral,"['1', 'num_1', 'left', '2', 'num_2', 'right']",0,0,0,Emo_Nback_20180527_v1-ABCD1234,1.0.0.1180,Verdana,1,Right,60.2729473979,ABCD1234,"['2', 'num_2', 'right']",1,Professional,2.0.10.356,2.0.10.356,06/25/2018,22:10:20,Stimuli/,2.0.10.252,0,1,0,160,['space'],8.0,2-Back,,,,,,,,,,,,,,,,500.0,272043.0,272043.0,271543.0,271543.0,,,,,,0.0,No Match,2000.0,271543.0,271543.0,269547.0,,0,0.0,269547.0,Place,PL_012_92047.bmp,lure
Emo_Nback_20180527,1,Behavioral,"['1', 'num_1', 'left', '2', 'num_2', 'right']",0,0,0,Emo_Nback_20180527_v1-ABCD1234,1.0.0.1180,Verdana,1,Right,60.2729473979,ABCD1234,"['2', 'num_2', 'right']",1,Professional,2.0.10.356,2.0.10.356,06/25/2018,22:10:20,Stimuli/,2.0.10.252,0,1,0,160,['space'],8.0,2-Back,,,,,,,,,,,,,,,,500.0,274543.0,274543.0,274044.0,274044.0,,,,,,0.0,No Match,2000.0,274044.0,274044.0,272047.0,,0,0.0,272047.0,Place,PL_011_92044.bmp,nonlure
Emo_Nback_20180527,1,Behavioral,"['1', 'num_1', 'left', '2', 'num_2', 'right']",0,0,0,Emo_Nback_20180527_v1-ABCD1234,1.0.0.1180,Verdana,1,Right,60.2729473979,ABCD1234,"['2', 'num_2', 'right']",1,Professional,2.0.10.356,2.0.10.356,06/25/2018,22:10:20,Stimuli/,2.0.10.252,0,1,0,160,['space'],None,Fix15secPROC,,,,,,,,,,,,,,,,,,,,,15000.0,289545.0,289545.0,274545.0,274545.0,,,,,,,,0,,,None,None,None
Emo_Nback_20180527,1,Behavioral,"['1', 'num_1', 'left', '2', 'num_2', 'right']",0,0,0,Emo_Nback_20180527_v1-ABCD1234,1.0.0.1180,Verdana,1,Right,60.2729473979,ABCD1234,"['2', 'num_2', 'right']",1,Professional,2.0.10.356,2.0.10.356,06/25/2018,22:10:20,Stimuli/,2.0.10.252,0,1,0,160,['space'],,Cue2Back,2500.0,299080.0,299080.0,296579.0,296579.0,500.0,296579.0,296579.0,296080.0,296080.0,,,,,,,,,,,,,,,,,,,,,,,0,,,Faces,,
Emo_Nback_20180527,1,Behavioral,"['1', 'num_1', 'left', '2', 'num_2', 'right']",0,0,0,Emo_Nback_20180527_v1-ABCD1234,1.0.0.1180,Verdana,1,Right,60.2729473979,ABCD1234,"['2', 'num_2', 'right']",1,Professional,2.0.10.356,2.0.10.356,06/25/2018,22:10:20,Stimuli/,2.0.10.252,0,1,0,160,['space'],1,2-Back,,,,,,,,,,,,,,,,500.0,301581.0,301581.0,301081.0,301081.0,,,,,,0.0,No Match,2000.0,301081.0,301081.0,299084.0,,0,0.0,299084.0,NegFace,16F_FO.bmp,nonlure
Emo_Nback_20180527,1,Behavioral,"['1', 'num_1', 'left', '2', 'num_2', 'right']",0,0,0,Emo_Nback_20180527_v1-ABCD1234,1.0.0.1180,Verdana,1,Right,60.2729473979,ABCD1234,"['2', 'num_2', 'right']",1,Professional,2.0.10.356,2.0.10.356,06/25/2018,22:10:20,Stimuli/,2.0.10.252,0,1,0,160,['space'],1,2-Back,,,,,,,,,,,,,,,,500.0,304081.0,304081.0,303581.0,303581.0,,,,,,0.0,No Match,2000.0,303581.0,303581.0,301586.0,,0,0.0,301585.0,NegFace,1F_FO.bmp,nonlure
Emo_Nback_20180527,1,Behavioral,"['1', 'num_1', 'left', '2', 'num_2', 'right']",0,0,0,Emo_Nback_20180527_v1-ABCD1234,1.0.0.1180,Verdana,1,Right,60.2729473979,ABCD1234,"['2', 'num_2', 'right']",1,Professional,2.0.10.356,2.0.10.356,06/25/2018,22:10:20,Stimuli/,2.0.10.252,0,1,0,160,['space'],1,2-Back,,,,,,,,,,,,,,,,500.0,306583.0,306582.0,306082.0,306082.0,,,,,,0.0,No Match,2000.0,306082.0,306082.0,304084.0,,0,0.0,304084.0,NegFace,BM023_FO.bmp,nonlure
Emo_Nback_20180527,1,Behavioral,"['1', 'num_1', 'left', '2', 'num_2', 'right']",0,0,0,Emo_Nback_20180527_v1-ABCD1234,1.0.0.1180,Verdana,1,Right,60.2729473979,ABCD1234,"['2', 'num_2', 'right']",1,Professional,2.0.10.356,2.0.10.356,06/25/2018,22:10:20,Stimuli/,2.0.10.252,0,1,0,160,['space'],1,2-Back,,,,,,,,,,,,,,,,500.0,309084.0,309084.0,308581.0,308581.0,,,,,,0.0,No Match,2000.0,308581.0,308581.0,306587.0,,0,0.0,306586.0,NegFace,16F_FO.bmp,lure
Emo_Nback_20180527,1,Behavioral,"['1', 'num_1', 'left', '2', 'num_2', 'right']",0,0,0,Emo_Nback_20180527_v1-ABCD1234,1.0.0.1180,Verdana,1,Right,60.2729473979,ABCD1234,"['2', 'num_2', 'right']",1,Professional,2.0.10.356,2.0.10.356,06/25/2018,22:10:20,Stimuli/,2.0.10.252,0,1,0,160,['space'],1,2-Back,,,,,,,,,,,,,,,,500.0,311582.0,311582.0,311082.0,311082.0,,,,,,0.0,Match,2000.0,311082.0,311082.0,309088.0,,0,0.0,309088.0,NegFace,BM023_FO.bmp,target
Emo_Nback_20180527,1,Behavioral,"['1', 'num_1', 'left', '2', 'num_2', 'right']",0,0,0,Emo_Nback_20180527_v1-ABCD1234,1.0.0.1180,Verdana,1,Right,60.2729473979,ABCD1234,"['2', 'num_2', 'right']",1,Professional,2.0.10.356,2.0.10.356,06/25/2018,22:10:20,Stimuli/,2.0.10.252,0,1,0,160,['space'],1,2-Back,,,,,,,,,,,,,,,,500.0,314083.0,314083.0,313583.0,313583.0,,,,,,0.0,No Match,2000.0,313583.0,313583.0,311586.0,,0,0.0,311586.0,NegFace,3F_FO.bmp,nonlure
Emo_Nback_20180527,1,Behavioral,"['1', 'num_1', 'left', '2', 'num_2', 'right']",0,0,0,Emo_Nback_20180527_v1-ABCD1234,1.0.0.1180,Verdana,1,Right,60.2729473979,ABCD1234,"['2', 'num_2', 'right']",1,Professional,2.0.10.356,2.0.10.356,06/25/2018,22:10:20,Stimuli/,2.0.10.252,0,1,0,160,['space'],1,2-Back,,,,,,,,,,,,,,,,500.0,316585.0,316584.0,316084.0,316084.0,,,,,,0.0,No Match,2000.0,316084.0,316084.0,314087.0,,0,0.0,314087.0,NegFace,AM05_FO.bmp,nonlure
Emo_Nback_20180527,1,Behavioral,"['1', 'num_1', 'left', '2', 'num_2', 'right']",0,0,0,Emo_Nback_20180527_v1-ABCD1234,1.0.0.1180,Verdana,1,Right,60.2729473979,ABCD1234,"['2', 'num_2', 'right']",1,Professional,2.0.10.356,2.0.10.356,06/25/2018,22:10:20,Stimuli/,2.0.10.252,0,1,0,160,['space'],1,2-Back,,,,,,,,,,,,,,,,500.0,319085.0,319085.0,318582.0,318582.0,,,,,,0.0,Match,2000.0,318582.0,318582.0,316589.0,,0,0.0,316588.0,NegFace,3F_FO.bmp,target
Emo_Nback_20180527,1,Behavioral,"['1', 'num_1', 'left', '2', 'num_2', 'right']",0,0,0,Emo_Nback_20180527_v1-ABCD1234,1.0.0.1180,Verdana,1,Right,60.2729473979,ABCD1234,"['2', 'num_2', 'right']",1,Professional,2.0.10.356,2.0.10.356,06/25/2018,22:10:20,Stimuli/,2.0.10.252,0,1,0,160,['space'],1,2-Back,,,,,,,,,,,,,,,,500.0,321582.0,321582.0,321083.0,321083.0,,,,,,0.0,No Match,2000.0,321083.0,321083.0,319090.0,,0,0.0,319090.0,NegFace,WM003_FO.bmp,nonlure
Emo_Nback_20180527,1,Behavioral,"['1', 'num_1', 'left', '2', 'num_2', 'right']",0,0,0,Emo_Nback_20180527_v1-ABCD1234,1.0.0.1180,Verdana,1,Right,60.2729473979,ABCD1234,"['2', 'num_2', 'right']",1,Professional,2.0.10.356,2.0.10.356,06/25/2018,22:10:20,Stimuli/,2.0.10.252,0,1,0,160,['space'],1,2-Back,,,,,,,,,,,,,,,,500.0,324084.0,324084.0,323584.0,323584.0,,,,,,0.0,No Match,2000.0,323584.0,323584.0,321587.0,,0,0.0,321587.0,NegFace,AM05_FO.bmp,lure
Emo_Nback_20180527,1,Behavioral,"['1', 'num_1', 'left', '2', 'num_2', 'right']",0,0,0,Emo_Nback_20180527_v1-ABCD1234,1.0.0.1180,Verdana,1,Right,60.2729473979,ABCD1234,"['2', 'num_2', 'right']",1,Professional,2.0.10.356,2.0.10.356,06/25/2018,22:10:20,Stimuli/,2.0.10.252,0,1,0,160,['space'],2,Cue0Back,,,,,,500.0,324584.0,324584.0,324088.0,324088.0,2500.0,327085.0,327085.0,324585.0,324584.0,,,,,,,,,,,,,,,,,,0,,,Faces,19F_HO.bmp,target
Emo_Nback_20180527,1,Behavioral,"['1', 'num_1', 'left', '2', 'num_2', 'right']",0,0,0,Emo_Nback_20180527_v1-ABCD1234,1.0.0.1180,Verdana,1,Right,60.2729473979,ABCD1234,"['2', 'num_2', 'right']",1,Professional,2.0.10.356,2.0.10.356,06/25/2018,22:10:20,Stimuli/,2.0.10.252,0,1,0,160,['space'],2,0-Back,,,,,,,,,,,,,,,,500.0,329584.0,329584.0,329086.0,329086.0,,,,,,0.0,No Match,2000.0,329086.0,329086.0,327089.0,,0,0.0,327089.0,PosFace,32M_HO.bmp,nonlure
Emo_Nback_20180527,1,Behavioral,"['1', 'num_1', 'left', '2', 'num_2', 'right']",0,0,0,Emo_Nback_20180527_v1-ABCD1234,1.0.0.1180,Verdana,1,Right,60.2729473979,ABCD1234,"['2', 'num_2', 'right']",1,Professional,2.0.10.356,2.0.10.356,06/25/2018,22:10:20,Stimuli/,2.0.10.252,0,1,0,160,['space'],2,0-Back,,,,,,,,,,,,,,,,500.0,332086.0,332086.0,331585.0,331585.0,,,,,,0.0,No Match,2000.0,331585.0,331585.0,329589.0,,0,0.0,329589.0,PosFace,BF016_HO.bmp,nonlure
Emo_Nback_20180527,1,Behavioral,"['1', 'num_1', 'left', '2', 'num_2', 'right']",0,0,0,Emo_Nback_20180527_v1-ABCD1234,1.0.0.1180,Verdana,1,Right,60.2729473979,ABCD1234,"['2', 'num_2', 'right']",1,Professional,2.0.10.356,2.0.10.356,06/25/2018,22:10:20,Stimuli/,2.0.10.252,0,1,0,160,['space'],2,0-Back,,,,,,,,,,,,,,,,500.0,334585.0,334585.0,334085.0,334085.0,,,,,,0.0,No Match,2000.0,334085.0,334085.0,332090.0,,0,0.0,332090.0,PosFace,BM06_HO.bmp,nonlure
Emo_Nback_20180527,1,Behavioral,"['1', 'num_1', 'left', '2', 'num_2', 'right']",0,0,0,Emo_Nback_20180527_v1-ABCD1234,1.0.0.1180,Verdana,1,Right,60.2729473979,ABCD1234,"['2', 'num_2', 'right']",1,Professional,2.0.10.356,2.0.10.356,06/25/2018,22:10:20,Stimuli/,2.0.10.252,0,1,0,160,['space'],2,0-Back,,,,,,,,,,,,,,,,500.0,337103.0,337103.0,336589.0,336589.0,,,,,,0.0,No Match,2000.0,336589.0,336589.0,334589.0,,0,0.0,334589.0,PosFace,BF016_HO.bmp,lure
Emo_Nback_20180527,1,Behavioral,"['1', 'num_1', 'left', '2', 'num_2', 'right']",0,0,0,Emo_Nback_20180527_v1-ABCD1234,1.0.0.1180,Verdana,1,Right,60.2729473979,ABCD1234,"['2', 'num_2', 'right']",1,Professional,2.0.10.356,2.0.10.356,06/25/2018,22:10:20,Stimuli/,2.0.10.252,0,1,0,160,['space'],2,0-Back,,,,,,,,,,,,,,,,500.0,339585.0,339585.0,339085.0,339085.0,,,,,,0.0,Match,2000.0,339085.0,339085.0,337107.0,,0,0.0,337107.0,PosFace,19F_HO.bmp,target
Emo_Nback_20180527,1,Behavioral,"['1', 'num_1', 'left', '2', 'num_2', 'right']",0,0,0,Emo_Nback_20180527_v1-ABCD1234,1.0.0.1180,Verdana,1,Right,60.2729473979,ABCD1234,"['2', 'num_2', 'right']",1,Professional,2.0.10.356,2.0.10.356,06/25/2018,22:10:20,Stimuli/,2.0.10.252,0,1,0,160,['space'],2,0-Back,,,,,,,,,,,,,,,,500.0,342087.0,342087.0,341585.0,341585.0,,,,,,0.0,No Match,2000.0,341585.0,341585.0,339590.0,,0,0.0,339590.0,PosFace,32M_HO.bmp,lure
Emo_Nback_20180527,1,Behavioral,"['1', 'num_1', 'left', '2', 'num_2', 'right']",0,0,0,Emo_Nback_20180527_v1-ABCD1234,1.0.0.1180,Verdana,1,Right,60.2729473979,ABCD1234,"['2', 'num_2', 'right']",1,Professional,2.0.10.356,2.0.10.356,06/25/2018,22:10:20,Stimuli/,2.0.10.252,0,1,0,160,['space'],2,0-Back,,,,,,,,,,,,,,,,500.0,344585.0,344585.0,344086.0,344086.0,,,,,,0.0,No Match,2000.0,344086.0,344085.0,342091.0,,0,0.0,342091.0,PosFace,20M_HO.bmp,nonlure
Emo_Nback_20180527,1,Behavioral,"['1', 'num_1', 'left', '2', 'num_2', 'right']",0,0,0,Emo_Nback_20180527_v1-ABCD1234,1.0.0.1180,Verdana,1,Right,60.2729473979,ABCD1234,"['2', 'num_2', 'right']",1,Professional,2.0.10.356,2.0.10.356,06/25/2018,22:10:20,Stimuli/,2.0.10.252,0,1,0,160,['space'],2,0-Back,,,,,,,,,,,,,,,,500.0,347086.0,347086.0,346587.0,346587.0,,,,,,0.0,Match,2000.0,346587.0,346586.0,344590.0,,0,0.0,344589.0,PosFace,19F_HO.bmp,target
Emo_Nback_20180527,1,Behavioral,"['1', 'num_1', 'left', '2', 'num_2', 'right']",0,0,0,Emo_Nback_20180527_v1-ABCD1234,1.0.0.1180,Verdana,1,Right,60.2729473979,ABCD1234,"['2', 'num_2', 'right']",1,Professional,2.0.10.356,2.0.10.356,06/25/2018,22:10:20,Stimuli/,2.0.10.252,0,1,0,160,['space'],2,0-Back,,,,,,,,,,,,,,,,500.0,349586.0,349586.0,349086.0,349086.0,,,,,,0.0,No Match,2000.0,349086.0,349086.0,347092.0,,0,0.0,347091.0,PosFace,WF007_HO.bmp,nonlure
Emo_Nback_20180527,1,Behavioral,"['1', 'num_1', 'left', '2', 'num_2', 'right']",0,0,0,Emo_Nback_20180527_v1-ABCD1234,1.0.0.1180,Verdana,1,Right,60.2729473979,ABCD1234,"['2', 'num_2', 'right']",1,Professional,2.0.10.356,2.0.10.356,06/25/2018,22:10:20,Stimuli/,2.0.10.252,0,1,0,160,['space'],2,0-Back,,,,,,,,,,,,,,,,500.0,352089.0,352089.0,351590.0,351590.0,,,,,,0.0,No Match,2000.0,351590.0,351590.0,349590.0,,0,0.0,349590.0,PosFace,BM06_HO.bmp,lure
Emo_Nback_20180527,1,Behavioral,"['1', 'num_1', 'left', '2', 'num_2', 'right']",0,0,0,Emo_Nback_20180527_v1-ABCD1234,1.0.0.1180,Verdana,1,Right,60.2729473979,ABCD1234,"['2', 'num_2', 'right']",1,Professional,2.0.10.356,2.0.10.356,06/25/2018,22:10:20,Stimuli/,2.0.10.252,0,1,0,160,['space'],None,Fix15secPROC,,,,,,,,,,,,,,,,,,,,,15000.0,367090.0,367090.0,352090.0,352090.0,,,,,,,,0,,,None,None,None
Emo_Nback_20180527,1,Behavioral,"['1', 'num_1', 'left', '2', 'num_2', 'right']",0,0,0,Emo_Nback_20180527_v1-ABCD1234,1.0.0.1180,Verdana,1,Right,60.2729473979,ABCD1234,"['2', 'num_2', 'right']",1,Professional,2.0.10.356,2.0.10.356,06/25/2018,22:10:20,Stimuli/,2.0.10.252,0,1,0,160,['space'],None,Cue2Back,2500.0,370090.0,370090.0,367589.0,367589.0,500.0,367589.0,367589.0,367095.0,367095.0,,,,,,,,,,,,,,,,,,,,,,,0,,,Faces,None,None
Emo_Nback_20180527,1,Behavioral,"['1', 'num_1', 'left', '2', 'num_2', 'right']",0,0,0,Emo_Nback_20180527_v1-ABCD1234,1.0.0.1180,Verdana,1,Right,60.2729473979,ABCD1234,"['2', 'num_2', 'right']",1,Professional,2.0.10.356,2.0.10.356,06/25/2018,22:10:20,Stimuli/,2.0.10.252,0,1,0,160,['space'],3,2-Back,,,,,,,,,,,,,,,,500.0,372590.0,372590.0,372095.0,372095.0,,,,,,0.0,No Match,2000.0,372095.0,372095.0,370094.0,,0,0.0,370094.0,NeutFace,LM211_NC.bmp,nonlure
Emo_Nback_20180527,1,Behavioral,"['1', 'num_1', 'left', '2', 'num_2', 'right']",0,0,0,Emo_Nback_20180527_v1-ABCD1234,1.0.0.1180,Verdana,1,Right,60.2729473979,ABCD1234,"['2', 'num_2', 'right']",1,Professional,2.0.10.356,2.0.10.356,06/25/2018,22:10:20,Stimuli/,2.0.10.252,0,1,0,160,['space'],3,2-Back,,,,,,,,,,,,,,,,500.0,375079.0,375078.0,374596.0,374596.0,,,,,,0.0,No Match,2000.0,374596.0,374595.0,372594.0,,0,0.0,372594.0,NeutFace,AF216_NC.bmp,nonlure
Emo_Nback_20180527,1,Behavioral,"['1', 'num_1', 'left', '2', 'num_2', 'right']",0,0,0,Emo_Nback_20180527_v1-ABCD1234,1.0.0.1180,Verdana,1,Right,60.2729473979,ABCD1234,"['2', 'num_2', 'right']",1,Professional,2.0.10.356,2.0.10.356,06/25/2018,22:10:20,Stimuli/,2.0.10.252,0,1,0,160,['space'],3,2-Back,,,,,,,,,,,,,,,,500.0,377591.0,377591.0,377091.0,377091.0,,,,,,0.0,No Match,2000.0,377091.0,377091.0,375083.0,,0,0.0,375082.0,NeutFace,AF216_NC.bmp,lure
Emo_Nback_20180527,1,Behavioral,"['1', 'num_1', 'left', '2', 'num_2', 'right']",0,0,0,Emo_Nback_20180527_v1-ABCD1234,1.0.0.1180,Verdana,1,Right,60.2729473979,ABCD1234,"['2', 'num_2', 'right']",1,Professional,2.0.10.356,2.0.10.356,06/25/2018,22:10:20,Stimuli/,2.0.10.252,0,1,0,160,['space'],3,2-Back,,,,,,,,,,,,,,,,500.0,380077.0,380077.0,379591.0,379591.0,,,,,,0.0,No Match,2000.0,379591.0,379590.0,377596.0,,0,0.0,377595.0,NeutFace,WM04_NC.bmp,nonlure
Emo_Nback_20180527,1,Behavioral,"['1', 'num_1', 'left', '2', 'num_2', 'right']",0,0,0,Emo_Nback_20180527_v1-ABCD1234,1.0.0.1180,Verdana,1,Right,60.2729473979,ABCD1234,"['2', 'num_2', 'right']",1,Professional,2.0.10.356,2.0.10.356,06/25/2018,22:10:20,Stimuli/,2.0.10.252,0,1,0,160,['space'],3,2-Back,,,,,,,,,,,,,,,,500.0,382579.0,382579.0,382092.0,382092.0,,,,,,0.0,No Match,2000.0,382092.0,382092.0,380082.0,,0,0.0,380082.0,NeutFace,WM04_NC.bmp,lure
Emo_Nback_20180527,1,Behavioral,"['1', 'num_1', 'left', '2', 'num_2', 'right']",0,0,0,Emo_Nback_20180527_v1-ABCD1234,1.0.0.1180,Verdana,1,Right,60.2729473979,ABCD1234,"['2', 'num_2', 'right']",1,Professional,2.0.10.356,2.0.10.356,06/25/2018,22:10:20,Stimuli/,2.0.10.252,0,1,0,160,['space'],3,2-Back,,,,,,,,,,,,,,,,500.0,385092.0,385092.0,384592.0,384592.0,,,,,,0.0,No Match,2000.0,384592.0,384592.0,382583.0,,0,0.0,382583.0,NeutFace,14F_NC.bmp,nonlure
Emo_Nback_20180527,1,Behavioral,"['1', 'num_1', 'left', '2', 'num_2', 'right']",0,0,0,Emo_Nback_20180527_v1-ABCD1234,1.0.0.1180,Verdana,1,Right,60.2729473979,ABCD1234,"['2', 'num_2', 'right']",1,Professional,2.0.10.356,2.0.10.356,06/25/2018,22:10:20,Stimuli/,2.0.10.252,0,1,0,160,['space'],3,2-Back,,,,,,,,,,,,,,,,500.0,387593.0,387593.0,387094.0,387094.0,,,,,,0.0,No Match,2000.0,387094.0,387094.0,385096.0,,0,0.0,385096.0,NeutFace,AM210_NC.bmp,nonlure
Emo_Nback_20180527,1,Behavioral,"['1', 'num_1', 'left', '2', 'num_2', 'right']",0,0,0,Emo_Nback_20180527_v1-ABCD1234,1.0.0.1180,Verdana,1,Right,60.2729473979,ABCD1234,"['2', 'num_2', 'right']",1,Professional,2.0.10.356,2.0.10.356,06/25/2018,22:10:20,Stimuli/,2.0.10.252,0,1,0,160,['space'],3,2-Back,,,,,,,,,,,,,,,,500.0,390079.0,390079.0,389592.0,389592.0,,,,,,0.0,No Match,2000.0,389592.0,389592.0,387597.0,,0,0.0,387597.0,NeutFace,WF02_NC.bmp,nonlure
Emo_Nback_20180527,1,Behavioral,"['1', 'num_1', 'left', '2', 'num_2', 'right']",0,0,0,Emo_Nback_20180527_v1-ABCD1234,1.0.0.1180,Verdana,1,Right,60.2729473979,ABCD1234,"['2', 'num_2', 'right']",1,Professional,2.0.10.356,2.0.10.356,06/25/2018,22:10:20,Stimuli/,2.0.10.252,0,1,0,160,['space'],3,2-Back,,,,,,,,,,,,,,,,500.0,392593.0,392593.0,392078.0,392078.0,,,,,,0.0,Match,2000.0,392078.0,392078.0,390083.0,,0,0.0,390083.0,NeutFace,AM210_NC.bmp,target
Emo_Nback_20180527,1,Behavioral,"['1', 'num_1', 'left', '2', 'num_2', 'right']",0,0,0,Emo_Nback_20180527_v1-ABCD1234,1.0.0.1180,Verdana,1,Right,60.2729473979,ABCD1234,"['2', 'num_2', 'right']",1,Professional,2.0.10.356,2.0.10.356,06/25/2018,22:10:20,Stimuli/,2.0.10.252,0,1,0,160,['space'],3,2-Back,,,,,,,,,,,,,,,,500.0,395093.0,395093.0,394595.0,394595.0,,,,,,0.0,Match,2000.0,394595.0,394595.0,392597.0,,0,0.0,392597.0,NeutFace,WF02_NC.bmp,target
Emo_Nback_20180527,1,Behavioral,"['1', 'num_1', 'left', '2', 'num_2', 'right']",0,0,0,Emo_Nback_20180527_v1-ABCD1234,1.0.0.1180,Verdana,1,Right,60.2729473979,ABCD1234,"['2', 'num_2', 'right']",1,Professional,2.0.10.356,2.0.10.356,06/25/2018,22:10:20,Stimuli/,2.0.10.252,0,1,0,160,['space'],None,Cue0Back,,,,,,500.0,395593.0,395593.0,395097.0,395097.0,2500.0,398078.0,398078.0,395594.0,395593.0,,,,,,,,,,,,,,,,,,0,,,Faces,BF10_FO.bmp,target
Emo_Nback_20180527,1,Behavioral,"['1', 'num_1', 'left', '2', 'num_2', 'right']",0,0,0,Emo_Nback_20180527_v1-ABCD1234,1.0.0.1180,Verdana,1,Right,60.2729473979,ABCD1234,"['2', 'num_2', 'right']",1,Professional,2.0.10.356,2.0.10.356,06/25/2018,22:10:20,Stimuli/,2.0.10.252,0,1,0,160,['space'],4,0-Back,,,,,,,,,,,,,,,,500.0,400579.0,400578.0,400078.0,400078.0,,,,,,0.0,Match,2000.0,400078.0,400078.0,398082.0,,0,0.0,398082.0,NegFace,BF10_FO.bmp,target
Emo_Nback_20180527,1,Behavioral,"['1', 'num_1', 'left', '2', 'num_2', 'right']",0,0,0,Emo_Nback_20180527_v1-ABCD1234,1.0.0.1180,Verdana,1,Right,60.2729473979,ABCD1234,"['2', 'num_2', 'right']",1,Professional,2.0.10.356,2.0.10.356,06/25/2018,22:10:20,Stimuli/,2.0.10.252,0,1,0,160,['space'],4,0-Back,,,,,,,,,,,,,,,,500.0,403078.0,403078.0,402577.0,402577.0,,,,,,0.0,No Match,2000.0,402577.0,402577.0,400583.0,,0,0.0,400583.0,NegFace,5F_FO.bmp,nonlure
Emo_Nback_20180527,1,Behavioral,"['1', 'num_1', 'left', '2', 'num_2', 'right']",0,0,0,Emo_Nback_20180527_v1-ABCD1234,1.0.0.1180,Verdana,1,Right,60.2729473979,ABCD1234,"['2', 'num_2', 'right']",1,Professional,2.0.10.356,2.0.10.356,06/25/2018,22:10:20,Stimuli/,2.0.10.252,0,1,0,160,['space'],4,0-Back,,,,,,,,,,,,,,,,500.0,405578.0,405578.0,405079.0,405079.0,,,,,,0.0,Match,2000.0,405079.0,405079.0,403082.0,,0,0.0,403082.0,NegFace,BF10_FO.bmp,target
Emo_Nback_20180527,1,Behavioral,"['1', 'num_1', 'left', '2', 'num_2', 'right']",0,0,0,Emo_Nback_20180527_v1-ABCD1234,1.0.0.1180,Verdana,1,Right,60.2729473979,ABCD1234,"['2', 'num_2', 'right']",1,Professional,2.0.10.356,2.0.10.356,06/25/2018,22:10:20,Stimuli/,2.0.10.252,0,1,0,160,['space'],4,0-Back,,,,,,,,,,,,,,,,500.0,408078.0,408078.0,407578.0,407578.0,,,,,,0.0,No Match,2000.0,407578.0,407578.0,405583.0,,0,0.0,405582.0,NegFace,33M_FO.bmp,nonlure
Emo_Nback_20180527,1,Behavioral,"['1', 'num_1', 'left', '2', 'num_2', 'right']",0,0,0,Emo_Nback_20180527_v1-ABCD1234,1.0.0.1180,Verdana,1,Right,60.2729473979,ABCD1234,"['2', 'num_2', 'right']",1,Professional,2.0.10.356,2.0.10.356,06/25/2018,22:10:20,Stimuli/,2.0.10.252,0,1,0,160,['space'],4,0-Back,,,,,,,,,,,,,,,,500.0,410579.0,410579.0,410079.0,410079.0,,,,,,0.0,No Match,2000.0,410079.0,410078.0,408083.0,,0,0.0,408082.0,NegFace,43M_FO.bmp,nonlure
Emo_Nback_20180527,1,Behavioral,"['1', 'num_1', 'left', '2', 'num_2', 'right']",0,0,0,Emo_Nback_20180527_v1-ABCD1234,1.0.0.1180,Verdana,1,Right,60.2729473979,ABCD1234,"['2', 'num_2', 'right']",1,Professional,2.0.10.356,2.0.10.356,06/25/2018,22:10:20,Stimuli/,2.0.10.252,0,1,0,160,['space'],4,0-Back,,,,,,,,,,,,,,,,500.0,413078.0,413078.0,412580.0,412580.0,,,,,,0.0,No Match,2000.0,412580.0,412580.0,410583.0,,0,0.0,410583.0,NegFace,43M_FO.bmp,lure
Emo_Nback_20180527,1,Behavioral,"['1', 'num_1', 'left', '2', 'num_2', 'right']",0,0,0,Emo_Nback_20180527_v1-ABCD1234,1.0.0.1180,Verdana,1,Right,60.2729473979,ABCD1234,"['2', 'num_2', 'right']",1,Professional,2.0.10.356,2.0.10.356,06/25/2018,22:10:20,Stimuli/,2.0.10.252,0,1,0,160,['space'],4,0-Back,,,,,,,,,,,,,,,,500.0,415582.0,415582.0,415079.0,415079.0,,,,,,0.0,No Match,2000.0,415079.0,415079.0,413083.0,,0,0.0,413082.0,NegFace,WF034_FO.bmp,nonlure
Emo_Nback_20180527,1,Behavioral,"['1', 'num_1', 'left', '2', 'num_2', 'right']",0,0,0,Emo_Nback_20180527_v1-ABCD1234,1.0.0.1180,Verdana,1,Right,60.2729473979,ABCD1234,"['2', 'num_2', 'right']",1,Professional,2.0.10.356,2.0.10.356,06/25/2018,22:10:20,Stimuli/,2.0.10.252,0,1,0,160,['space'],4,0-Back,,,,,,,,,,,,,,,,500.0,418080.0,418080.0,417583.0,417583.0,,,,,,0.0,No Match,2000.0,417583.0,417583.0,415586.0,,0,0.0,415586.0,NegFace,WF034_FO.bmp,lure
Emo_Nback_20180527,1,Behavioral,"['1', 'num_1', 'left', '2', 'num_2', 'right']",0,0,0,Emo_Nback_20180527_v1-ABCD1234,1.0.0.1180,Verdana,1,Right,60.2729473979,ABCD1234,"['2', 'num_2', 'right']",1,Professional,2.0.10.356,2.0.10.356,06/25/2018,22:10:20,Stimuli/,2.0.10.252,0,1,0,160,['space'],4,0-Back,,,,,,,,,,,,,,,,500.0,420580.0,420580.0,420079.0,420079.0,,,,,,0.0,No Match,2000.0,420079.0,420079.0,418084.0,,0,0.0,418083.0,NegFace,BM05_FO.bmp,nonlure
Emo_Nback_20180527,1,Behavioral,"['1', 'num_1', 'left', '2', 'num_2', 'right']",0,0,0,Emo_Nback_20180527_v1-ABCD1234,1.0.0.1180,Verdana,1,Right,60.2729473979,ABCD1234,"['2', 'num_2', 'right']",1,Professional,2.0.10.356,2.0.10.356,06/25/2018,22:10:20,Stimuli/,2.0.10.252,0,1,0,160,['space'],4,0-Back,,,,,,,,,,,,,,,,500.0,423080.0,423080.0,422581.0,422581.0,,,,,,0.0,No Match,2000.0,422581.0,422581.0,420584.0,,0,0.0,420584.0,NegFace,BM05_FO.bmp,lure
Emo_Nback_20180527,1,Behavioral,"['1', 'num_1', 'left', '2', 'num_2', 'right']",0,0,0,Emo_Nback_20180527_v1-ABCD1234,1.0.0.1180,Verdana,1,Right,60.2729473979,ABCD1234,"['2', 'num_2', 'right']",1,Professional,2.0.10.356,2.0.10.356,06/25/2018,22:10:20,Stimuli/,2.0.10.252,0,1,0,160,['space'],None,Fix15secPROC,,,,,,,,,,,,,,,,,,,,,15000.0,438082.0,438082.0,423082.0,423082.0,,,,,,,,0,,,None,None,None
Emo_Nback_20180527,1,Behavioral,"['1', 'num_1', 'left', '2', 'num_2', 'right']",0,0,0,Emo_Nback_20180527_v1-ABCD1234,1.0.0.1180,Verdana,1,Right,60.2729473979,ABCD1234,"['2', 'num_2', 'right']",1,Professional,2.0.10.356,2.0.10.356,06/25/2018,22:10:20,Stimuli/,2.0.10.252,0,1,0,160,['space'],None,Cue2Back,2500.0,441085.0,441085.0,438583.0,438583.0,500.0,438583.0,438583.0,438087.0,438087.0,,,,,,,,,,,,,,,,,,,,,,,0,,,Faces,None,None
Emo_Nback_20180527,1,Behavioral,"['1', 'num_1', 'left', '2', 'num_2', 'right']",0,0,0,Emo_Nback_20180527_v1-ABCD1234,1.0.0.1180,Verdana,1,Right,60.2729473979,ABCD1234,"['2', 'num_2', 'right']",1,Professional,2.0.10.356,2.0.10.356,06/25/2018,22:10:20,Stimuli/,2.0.10.252,0,1,0,160,['space'],5,2-Back,,,,,,,,,,,,,,,,500.0,443584.0,443584.0,443083.0,443083.0,,,,,,0.0,No Match,2000.0,443083.0,443083.0,441089.0,,0,0.0,441088.0,PosFace,13F_HO.bmp,nonlure
Emo_Nback_20180527,1,Behavioral,"['1', 'num_1', 'left', '2', 'num_2', 'right']",0,0,0,Emo_Nback_20180527_v1-ABCD1234,1.0.0.1180,Verdana,1,Right,60.2729473979,ABCD1234,"['2', 'num_2', 'right']",1,Professional,2.0.10.356,2.0.10.356,06/25/2018,22:10:20,Stimuli/,2.0.10.252,0,1,0,160,['space'],5,2-Back,,,,,,,,,,,,,,,,500.0,446084.0,446084.0,445583.0,445583.0,,,,,,0.0,No Match,2000.0,445583.0,445583.0,443588.0,,0,0.0,443588.0,PosFace,29M_HO.bmp,nonlure
Emo_Nback_20180527,1,Behavioral,"['1', 'num_1', 'left', '2', 'num_2', 'right']",0,0,0,Emo_Nback_20180527_v1-ABCD1234,1.0.0.1180,Verdana,1,Right,60.2729473979,ABCD1234,"['2', 'num_2', 'right']",1,Professional,2.0.10.356,2.0.10.356,06/25/2018,22:10:20,Stimuli/,2.0.10.252,0,1,0,160,['space'],5,2-Back,,,,,,,,,,,,,,,,500.0,448584.0,448584.0,448084.0,448084.0,,,,,,0.0,Match,2000.0,448084.0,448084.0,446089.0,,0,0.0,446089.0,PosFace,13F_HO.bmp,target
Emo_Nback_20180527,1,Behavioral,"['1', 'num_1', 'left', '2', 'num_2', 'right']",0,0,0,Emo_Nback_20180527_v1-ABCD1234,1.0.0.1180,Verdana,1,Right,60.2729473979,ABCD1234,"['2', 'num_2', 'right']",1,Professional,2.0.10.356,2.0.10.356,06/25/2018,22:10:20,Stimuli/,2.0.10.252,0,1,0,160,['space'],5,2-Back,,,,,,,,,,,,,,,,500.0,451089.0,451089.0,450587.0,450587.0,,,,,,0.0,Match,2000.0,450587.0,450587.0,448588.0,,0,0.0,448588.0,PosFace,29M_HO.bmp,target
Emo_Nback_20180527,1,Behavioral,"['1', 'num_1', 'left', '2', 'num_2', 'right']",0,0,0,Emo_Nback_20180527_v1-ABCD1234,1.0.0.1180,Verdana,1,Right,60.2729473979,ABCD1234,"['2', 'num_2', 'right']",1,Professional,2.0.10.356,2.0.10.356,06/25/2018,22:10:20,Stimuli/,2.0.10.252,0,1,0,160,['space'],5,2-Back,,,,,,,,,,,,,,,,500.0,453584.0,453584.0,453085.0,453084.0,,,,,,0.0,No Match,2000.0,453084.0,453084.0,451094.0,,0,0.0,451093.0,PosFace,HF02_HO.bmp,nonlure
Emo_Nback_20180527,1,Behavioral,"['1', 'num_1', 'left', '2', 'num_2', 'right']",0,0,0,Emo_Nback_20180527_v1-ABCD1234,1.0.0.1180,Verdana,1,Right,60.2729473979,ABCD1234,"['2', 'num_2', 'right']",1,Professional,2.0.10.356,2.0.10.356,06/25/2018,22:10:20,Stimuli/,2.0.10.252,0,1,0,160,['space'],5,2-Back,,,,,,,,,,,,,,,,500.0,456085.0,456085.0,455585.0,455585.0,,,,,,0.0,No Match,2000.0,455585.0,455585.0,453588.0,,0,0.0,453588.0,PosFace,HF02_HO.bmp,lure
Emo_Nback_20180527,1,Behavioral,"['1', 'num_1', 'left', '2', 'num_2', 'right']",0,0,0,Emo_Nback_20180527_v1-ABCD1234,1.0.0.1180,Verdana,1,Right,60.2729473979,ABCD1234,"['2', 'num_2', 'right']",1,Professional,2.0.10.356,2.0.10.356,06/25/2018,22:10:20,Stimuli/,2.0.10.252,0,1,0,160,['space'],5,2-Back,,,,,,,,,,,,,,,,500.0,458585.0,458585.0,458085.0,458085.0,,,,,,0.0,No Match,2000.0,458085.0,458085.0,456090.0,,0,0.0,456089.0,PosFace,WM01_HO.bmp,nonlure
Emo_Nback_20180527,1,Behavioral,"['1', 'num_1', 'left', '2', 'num_2', 'right']",0,0,0,Emo_Nback_20180527_v1-ABCD1234,1.0.0.1180,Verdana,1,Right,60.2729473979,ABCD1234,"['2', 'num_2', 'right']",1,Professional,2.0.10.356,2.0.10.356,06/25/2018,22:10:20,Stimuli/,2.0.10.252,0,1,0,160,['space'],5,2-Back,,,,,,,,,,,,,,,,500.0,461085.0,461085.0,460586.0,460586.0,,,,,,0.0,No Match,2000.0,460586.0,460586.0,458591.0,,0,0.0,458590.0,PosFace,WF03_HO.bmp,nonlure
Emo_Nback_20180527,1,Behavioral,"['1', 'num_1', 'left', '2', 'num_2', 'right']",0,0,0,Emo_Nback_20180527_v1-ABCD1234,1.0.0.1180,Verdana,1,Right,60.2729473979,ABCD1234,"['2', 'num_2', 'right']",1,Professional,2.0.10.356,2.0.10.356,06/25/2018,22:10:20,Stimuli/,2.0.10.252,0,1,0,160,['space'],5,2-Back,,,,,,,,,,,,,,,,500.0,463586.0,463586.0,463089.0,463089.0,,,,,,0.0,No Match,2000.0,463089.0,463089.0,461089.0,,0,0.0,461089.0,PosFace,BM026_HO.bmp,nonlure
Emo_Nback_20180527,1,Behavioral,"['1', 'num_1', 'left', '2', 'num_2', 'right']",0,0,0,Emo_Nback_20180527_v1-ABCD1234,1.0.0.1180,Verdana,1,Right,60.2729473979,ABCD1234,"['2', 'num_2', 'right']",1,Professional,2.0.10.356,2.0.10.356,06/25/2018,22:10:20,Stimuli/,2.0.10.252,0,1,0,160,['space'],5,2-Back,,,,,,,,,,,,,,,,500.0,466087.0,466087.0,465587.0,465587.0,,,,,,0.0,No Match,2000.0,465587.0,465587.0,463590.0,,0,0.0,463590.0,PosFace,BM026_HO.bmp,lure
Emo_Nback_20180527,1,Behavioral,"['1', 'num_1', 'left', '2', 'num_2', 'right']",0,0,0,Emo_Nback_20180527_v1-ABCD1234,1.0.0.1180,Verdana,1,Right,60.2729473979,ABCD1234,"['2', 'num_2', 'right']",1,Professional,2.0.10.356,2.0.10.356,06/25/2018,22:10:20,Stimuli/,2.0.10.252,0,1,0,160,['space'],6,Cue2Back,2500.0,469088.0,469088.0,466588.0,466587.0,500.0,466587.0,466587.0,466092.0,466092.0,,,,,,,,,,,,,,,,,,,,,,,0,,,None,None,None
Emo_Nback_20180527,1,Behavioral,"['1', 'num_1', 'left', '2', 'num_2', 'right']",0,0,0,Emo_Nback_20180527_v1-ABCD1234,1.0.0.1180,Verdana,1,Right,60.2729473979,ABCD1234,"['2', 'num_2', 'right']",1,Professional,2.0.10.356,2.0.10.356,06/25/2018,22:10:20,Stimuli/,2.0.10.252,0,1,0,160,['space'],6,2-Back,,,,,,,,,,,,,,,,500.0,471587.0,471587.0,471087.0,471087.0,,,,,,0.0,No Match,2000.0,471087.0,471087.0,469092.0,,0,0.0,469092.0,Places,PL_034_FOXISLAND.bmp,nonlure
Emo_Nback_20180527,1,Behavioral,"['1', 'num_1', 'left', '2', 'num_2', 'right']",0,0,0,Emo_Nback_20180527_v1-ABCD1234,1.0.0.1180,Verdana,1,Right,60.2729473979,ABCD1234,"['2', 'num_2', 'right']",1,Professional,2.0.10.356,2.0.10.356,06/25/2018,22:10:20,Stimuli/,2.0.10.252,0,1,0,160,['space'],6,2-Back,,,,,,,,,,,,,,,,500.0,474088.0,474088.0,473589.0,473589.0,,,,,,0.0,No Match,2000.0,473589.0,473589.0,471591.0,,0,0.0,471591.0,Places,PL_044_SCENE01.bmp,nonlure
Emo_Nback_20180527,1,Behavioral,"['1', 'num_1', 'left', '2', 'num_2', 'right']",0,0,0,Emo_Nback_20180527_v1-ABCD1234,1.0.0.1180,Verdana,1,Right,60.2729473979,ABCD1234,"['2', 'num_2', 'right']",1,Professional,2.0.10.356,2.0.10.356,06/25/2018,22:10:20,Stimuli/,2.0.10.252,0,1,0,160,['space'],6,2-Back,,,,,,,,,,,,,,,,500.0,476588.0,476588.0,476090.0,476090.0,,,,,,0.0,No Match,2000.0,476090.0,476089.0,474092.0,,0,0.0,474092.0,Places,PL_044_SCENE01.bmp,lure
Emo_Nback_20180527,1,Behavioral,"['1', 'num_1', 'left', '2', 'num_2', 'right']",0,0,0,Emo_Nback_20180527_v1-ABCD1234,1.0.0.1180,Verdana,1,Right,60.2729473979,ABCD1234,"['2', 'num_2', 'right']",1,Professional,2.0.10.356,2.0.10.356,06/25/2018,22:10:20,Stimuli/,2.0.10.252,0,1,0,160,['space'],6,2-Back,,,,,,,,,,,,,,,,500.0,479089.0,479089.0,478589.0,478589.0,,,,,,0.0,No Match,2000.0,478589.0,478589.0,476592.0,,0,0.0,476592.0,Places,PL_041_LEXINGTON17.bmp,nonlure
Emo_Nback_20180527,1,Behavioral,"['1', 'num_1', 'left', '2', 'num_2', 'right']",0,0,0,Emo_Nback_20180527_v1-ABCD1234,1.0.0.1180,Verdana,1,Right,60.2729473979,ABCD1234,"['2', 'num_2', 'right']",1,Professional,2.0.10.356,2.0.10.356,06/25/2018,22:10:20,Stimuli/,2.0.10.252,0,1,0,160,['space'],6,2-Back,,,,,,,,,,,,,,,,500.0,481589.0,481589.0,481090.0,481090.0,,,,,,0.0,No Match,2000.0,481090.0,481090.0,479093.0,,0,0.0,479093.0,Places,PL_043_LEXINGTON19.bmp,nonlure
Emo_Nback_20180527,1,Behavioral,"['1', 'num_1', 'left', '2', 'num_2', 'right']",0,0,0,Emo_Nback_20180527_v1-ABCD1234,1.0.0.1180,Verdana,1,Right,60.2729473979,ABCD1234,"['2', 'num_2', 'right']",1,Professional,2.0.10.356,2.0.10.356,06/25/2018,22:10:20,Stimuli/,2.0.10.252,0,1,0,160,['space'],6,2-Back,,,,,,,,,,,,,,,,500.0,484090.0,484090.0,483590.0,483590.0,,,,,,0.0,Match,2000.0,483590.0,483590.0,481593.0,,0,0.0,481593.0,Places,PL_041_LEXINGTON17.bmp,target
Emo_Nback_20180527,1,Behavioral,"['1', 'num_1', 'left', '2', 'num_2', 'right']",0,0,0,Emo_Nback_20180527_v1-ABCD1234,1.0.0.1180,Verdana,1,Right,60.2729473979,ABCD1234,"['2', 'num_2', 'right']",1,Professional,2.0.10.356,2.0.10.356,06/25/2018,22:10:20,Stimuli/,2.0.10.252,0,1,0,160,['space'],6,2-Back,,,,,,,,,,,,,,,,500.0,486590.0,486590.0,486090.0,486090.0,,,,,,0.0,Match,2000.0,486090.0,486090.0,484094.0,,0,0.0,484093.0,Places,PL_043_LEXINGTON19.bmp,target
Emo_Nback_20180527,1,Behavioral,"['1', 'num_1', 'left', '2', 'num_2', 'right']",0,0,0,Emo_Nback_20180527_v1-ABCD1234,1.0.0.1180,Verdana,1,Right,60.2729473979,ABCD1234,"['2', 'num_2', 'right']",1,Professional,2.0.10.356,2.0.10.356,06/25/2018,22:10:20,Stimuli/,2.0.10.252,0,1,0,160,['space'],6,2-Back,,,,,,,,,,,,,,,,500.0,489090.0,489090.0,488590.0,488590.0,,,,,,0.0,No Match,2000.0,488590.0,488590.0,486595.0,,0,0.0,486595.0,Places,PL_040_LEXINGTON16.bmp,nonlure
Emo_Nback_20180527,1,Behavioral,"['1', 'num_1', 'left', '2', 'num_2', 'right']",0,0,0,Emo_Nback_20180527_v1-ABCD1234,1.0.0.1180,Verdana,1,Right,60.2729473979,ABCD1234,"['2', 'num_2', 'right']",1,Professional,2.0.10.356,2.0.10.356,06/25/2018,22:10:20,Stimuli/,2.0.10.252,0,1,0,160,['space'],6,2-Back,,,,,,,,,,,,,,,,500.0,491591.0,491591.0,491090.0,491090.0,,,,,,0.0,No Match,2000.0,491090.0,491090.0,489095.0,,0,0.0,489095.0,Places,PL_040_LEXINGTON16.bmp,lure
Emo_Nback_20180527,1,Behavioral,"['1', 'num_1', 'left', '2', 'num_2', 'right']",0,0,0,Emo_Nback_20180527_v1-ABCD1234,1.0.0.1180,Verdana,1,Right,60.2729473979,ABCD1234,"['2', 'num_2', 'right']",1,Professional,2.0.10.356,2.0.10.356,06/25/2018,22:10:20,Stimuli/,2.0.10.252,0,1,0,160,['space'],6,2-Back,,,,,,,,,,,,,,,,500.0,494091.0,494091.0,493591.0,493591.0,,,,,,0.0,No Match,2000.0,493591.0,493591.0,491595.0,,0,0.0,491595.0,Places,o89.1.bmp,nonlure
Emo_Nback_20180527,1,Behavioral,"['1', 'num_1', 'left', '2', 'num_2', 'right']",0,0,0,Emo_Nback_20180527_v1-ABCD1234,1.0.0.1180,Verdana,1,Right,60.2729473979,ABCD1234,"['2', 'num_2', 'right']",1,Professional,2.0.10.356,2.0.10.356,06/25/2018,22:10:20,Stimuli/,2.0.10.252,0,1,0,160,['space'],None,Fix15secPROC,,,,,,,,,,,,,,,,,,,,,15000.0,509093.0,509093.0,494093.0,494093.0,,,,,,,,0,,,None,None,None
Emo_Nback_20180527,1,Behavioral,"['1', 'num_1', 'left', '2', 'num_2', 'right']",0,0,0,Emo_Nback_20180527_v1-ABCD1234,1.0.0.1180,Verdana,1,Right,60.2729473979,ABCD1234,"['2', 'num_2', 'right']",1,Professional,2.0.10.356,2.0.10.356,06/25/2018,22:10:20,Stimuli/,2.0.10.252,0,1,0,160,['space'],7,Cue0Back,,,,,,500.0,509592.0,509592.0,509097.0,509097.0,2500.0,512077.0,512077.0,509593.0,509592.0,,,,,,,,,,,,,,,,,,0,,,Faces,LF209_NC.bmp,target
Emo_Nback_20180527,1,Behavioral,"['1', 'num_1', 'left', '2', 'num_2', 'right']",0,0,0,Emo_Nback_20180527_v1-ABCD1234,1.0.0.1180,Verdana,1,Right,60.2729473979,ABCD1234,"['2', 'num_2', 'right']",1,Professional,2.0.10.356,2.0.10.356,06/25/2018,22:10:20,Stimuli/,2.0.10.252,0,1,0,160,['space'],7,0-Back,,,,,,,,,,,,,,,,500.0,514577.0,514577.0,514077.0,514077.0,,,,,,0.0,No Match,2000.0,514077.0,514077.0,512081.0,,0,0.0,512081.0,NeutFace,BM04_NC.bmp,nonlure
Emo_Nback_20180527,1,Behavioral,"['1', 'num_1', 'left', '2', 'num_2', 'right']",0,0,0,Emo_Nback_20180527_v1-ABCD1234,1.0.0.1180,Verdana,1,Right,60.2729473979,ABCD1234,"['2', 'num_2', 'right']",1,Professional,2.0.10.356,2.0.10.356,06/25/2018,22:10:20,Stimuli/,2.0.10.252,0,1,0,160,['space'],7,0-Back,,,,,,,,,,,,,,,,500.0,517077.0,517077.0,516577.0,516577.0,,,,,,0.0,No Match,2000.0,516577.0,516577.0,514581.0,,0,0.0,514581.0,NeutFace,AM04_NC.bmp,nonlure
Emo_Nback_20180527,1,Behavioral,"['1', 'num_1', 'left', '2', 'num_2', 'right']",0,0,0,Emo_Nback_20180527_v1-ABCD1234,1.0.0.1180,Verdana,1,Right,60.2729473979,ABCD1234,"['2', 'num_2', 'right']",1,Professional,2.0.10.356,2.0.10.356,06/25/2018,22:10:20,Stimuli/,2.0.10.252,0,1,0,160,['space'],7,0-Back,,,,,,,,,,,,,,,,500.0,519578.0,519578.0,519078.0,519078.0,,,,,,0.0,Match,2000.0,519078.0,519078.0,517081.0,,0,0.0,517081.0,NeutFace,LF209_NC.bmp,target
Emo_Nback_20180527,1,Behavioral,"['1', 'num_1', 'left', '2', 'num_2', 'right']",0,0,0,Emo_Nback_20180527_v1-ABCD1234,1.0.0.1180,Verdana,1,Right,60.2729473979,ABCD1234,"['2', 'num_2', 'right']",1,Professional,2.0.10.356,2.0.10.356,06/25/2018,22:10:20,Stimuli/,2.0.10.252,0,1,0,160,['space'],7,0-Back,,,,,,,,,,,,,,,,500.0,522078.0,522078.0,521578.0,521578.0,,,,,,0.0,No Match,2000.0,521578.0,521578.0,519583.0,,0,0.0,519583.0,NeutFace,BM04_NC.bmp,lure
Emo_Nback_20180527,1,Behavioral,"['1', 'num_1', 'left', '2', 'num_2', 'right']",0,0,0,Emo_Nback_20180527_v1-ABCD1234,1.0.0.1180,Verdana,1,Right,60.2729473979,ABCD1234,"['2', 'num_2', 'right']",1,Professional,2.0.10.356,2.0.10.356,06/25/2018,22:10:20,Stimuli/,2.0.10.252,0,1,0,160,['space'],7,0-Back,,,,,,,,,,,,,,,,500.0,524578.0,524578.0,524080.0,524079.0,,,,,,0.0,Match,2000.0,524079.0,524079.0,522082.0,,0,0.0,522082.0,NeutFace,LF209_NC.bmp,target
Emo_Nback_20180527,1,Behavioral,"['1', 'num_1', 'left', '2', 'num_2', 'right']",0,0,0,Emo_Nback_20180527_v1-ABCD1234,1.0.0.1180,Verdana,1,Right,60.2729473979,ABCD1234,"['2', 'num_2', 'right']",1,Professional,2.0.10.356,2.0.10.356,06/25/2018,22:10:20,Stimuli/,2.0.10.252,0,1,0,160,['space'],7,0-Back,,,,,,,,,,,,,,,,500.0,527079.0,527079.0,526579.0,526579.0,,,,,,0.0,No Match,2000.0,526579.0,526579.0,524584.0,,0,0.0,524584.0,NeutFace,AF235_NC.bmp,nonlure
Emo_Nback_20180527,1,Behavioral,"['1', 'num_1', 'left', '2', 'num_2', 'right']",0,0,0,Emo_Nback_20180527_v1-ABCD1234,1.0.0.1180,Verdana,1,Right,60.2729473979,ABCD1234,"['2', 'num_2', 'right']",1,Professional,2.0.10.356,2.0.10.356,06/25/2018,22:10:20,Stimuli/,2.0.10.252,0,1,0,160,['space'],7,0-Back,,,,,,,,,,,,,,,,500.0,529579.0,529579.0,529080.0,529080.0,,,,,,0.0,No Match,2000.0,529080.0,529080.0,527084.0,,0,0.0,527084.0,NeutFace,AM04_NC.bmp,lure
Emo_Nback_20180527,1,Behavioral,"['1', 'num_1', 'left', '2', 'num_2', 'right']",0,0,0,Emo_Nback_20180527_v1-ABCD1234,1.0.0.1180,Verdana,1,Right,60.2729473979,ABCD1234,"['2', 'num_2', 'right']",1,Professional,2.0.10.356,2.0.10.356,06/25/2018,22:10:20,Stimuli/,2.0.10.252,0,1,0,160,['space'],7,0-Back,,,,,,,,,,,,,,,,500.0,532079.0,532079.0,531579.0,531579.0,,,,,,0.0,No Match,2000.0,531579.0,531579.0,529583.0,,0,0.0,529583.0,NeutFace,WM036_NC.bmp,nonlure
Emo_Nback_20180527,1,Behavioral,"['1', 'num_1', 'left', '2', 'num_2', 'right']",0,0,0,Emo_Nback_20180527_v1-ABCD1234,1.0.0.1180,Verdana,1,Right,60.2729473979,ABCD1234,"['2', 'num_2', 'right']",1,Professional,2.0.10.356,2.0.10.356,06/25/2018,22:10:20,Stimuli/,2.0.10.252,0,1,0,160,['space'],7,0-Back,,,,,,,,,,,,,,,,500.0,534579.0,534579.0,534080.0,534080.0,,,,,,0.0,No Match,2000.0,534080.0,534080.0,532084.0,,0,0.0,532083.0,NeutFace,WM036_NC.bmp,lure
Emo_Nback_20180527,1,Behavioral,"['1', 'num_1', 'left', '2', 'num_2', 'right']",0,0,0,Emo_Nback_20180527_v1-ABCD1234,1.0.0.1180,Verdana,1,Right,60.2729473979,ABCD1234,"['2', 'num_2', 'right']",1,Professional,2.0.10.356,2.0.10.356,06/25/2018,22:10:20,Stimuli/,2.0.10.252,0,1,0,160,['space'],7,0-Back,,,,,,,,,,,,,,,,500.0,537079.0,537079.0,536580.0,536580.0,,,,,,0.0,No Match,2000.0,536580.0,536579.0,534583.0,,0,0.0,534583.0,NeutFace,BF201_NC.bmp,nonlure
Emo_Nback_20180527,1,Behavioral,"['1', 'num_1', 'left', '2', 'num_2', 'right']",0,0,0,Emo_Nback_20180527_v1-ABCD1234,1.0.0.1180,Verdana,1,Right,60.2729473979,ABCD1234,"['2', 'num_2', 'right']",1,Professional,2.0.10.356,2.0.10.356,06/25/2018,22:10:20,Stimuli/,2.0.10.252,0,1,0,160,['space'],8,Cue0Back,,,,,,500.0,537580.0,537580.0,537083.0,537083.0,2500.0,540080.0,540080.0,537581.0,537580.0,,,,,,,,,,,,,,,,,,0,,,Place,PL_047_SCENE04.bmp,target
Emo_Nback_20180527,1,Behavioral,"['1', 'num_1', 'left', '2', 'num_2', 'right']",0,0,0,Emo_Nback_20180527_v1-ABCD1234,1.0.0.1180,Verdana,1,Right,60.2729473979,ABCD1234,"['2', 'num_2', 'right']",1,Professional,2.0.10.356,2.0.10.356,06/25/2018,22:10:20,Stimuli/,2.0.10.252,0,1,0,160,['space'],8,0-Back,,,,,,,,,,,,,,,,500.0,542580.0,542580.0,542080.0,542080.0,,,,,,0.0,No Match,2000.0,542080.0,542080.0,540084.0,,0,0.0,540084.0,Place,PL_046_SCENE03.bmp,nonlure
Emo_Nback_20180527,1,Behavioral,"['1', 'num_1', 'left', '2', 'num_2', 'right']",0,0,0,Emo_Nback_20180527_v1-ABCD1234,1.0.0.1180,Verdana,1,Right,60.2729473979,ABCD1234,"['2', 'num_2', 'right']",1,Professional,2.0.10.356,2.0.10.356,06/25/2018,22:10:20,Stimuli/,2.0.10.252,0,1,0,160,['space'],8,0-Back,,,,,,,,,,,,,,,,500.0,545081.0,545081.0,544581.0,544581.0,,,,,,0.0,No Match,2000.0,544581.0,544581.0,542584.0,,0,0.0,542584.0,Place,PL_045_SCENE02.bmp,nonlure
Emo_Nback_20180527,1,Behavioral,"['1', 'num_1', 'left', '2', 'num_2', 'right']",0,0,0,Emo_Nback_20180527_v1-ABCD1234,1.0.0.1180,Verdana,1,Right,60.2729473979,ABCD1234,"['2', 'num_2', 'right']",1,Professional,2.0.10.356,2.0.10.356,06/25/2018,22:10:20,Stimuli/,2.0.10.252,0,1,0,160,['space'],8,0-Back,,,,,,,,,,,,,,,,500.0,547581.0,547581.0,547081.0,547081.0,,,,,,0.0,No Match,2000.0,547081.0,547081.0,545085.0,,0,0.0,545085.0,Place,PL_046_SCENE03.bmp,lure
Emo_Nback_20180527,1,Behavioral,"['1', 'num_1', 'left', '2', 'num_2', 'right']",0,0,0,Emo_Nback_20180527_v1-ABCD1234,1.0.0.1180,Verdana,1,Right,60.2729473979,ABCD1234,"['2', 'num_2', 'right']",1,Professional,2.0.10.356,2.0.10.356,06/25/2018,22:10:20,Stimuli/,2.0.10.252,0,1,0,160,['space'],8,0-Back,,,,,,,,,,,,,,,,500.0,550081.0,550081.0,549582.0,549582.0,,,,,,0.0,No Match,2000.0,549582.0,549582.0,547584.0,,0,0.0,547584.0,Place,PL_048_SCENE05.bmp,nonlure
Emo_Nback_20180527,1,Behavioral,"['1', 'num_1', 'left', '2', 'num_2', 'right']",0,0,0,Emo_Nback_20180527_v1-ABCD1234,1.0.0.1180,Verdana,1,Right,60.2729473979,ABCD1234,"['2', 'num_2', 'right']",1,Professional,2.0.10.356,2.0.10.356,06/25/2018,22:10:20,Stimuli/,2.0.10.252,0,1,0,160,['space'],8,0-Back,,,,,,,,,,,,,,,,500.0,552582.0,552582.0,552082.0,552082.0,,,,,,0.0,No Match,2000.0,552082.0,552082.0,550086.0,,0,0.0,550086.0,Place,PL_045_SCENE02.bmp,lure
Emo_Nback_20180527,1,Behavioral,"['1', 'num_1', 'left', '2', 'num_2', 'right']",0,0,0,Emo_Nback_20180527_v1-ABCD1234,1.0.0.1180,Verdana,1,Right,60.2729473979,ABCD1234,"['2', 'num_2', 'right']",1,Professional,2.0.10.356,2.0.10.356,06/25/2018,22:10:20,Stimuli/,2.0.10.252,0,1,0,160,['space'],8,0-Back,,,,,,,,,,,,,,,,500.0,555083.0,555083.0,554583.0,554583.0,,,,,,0.0,Match,2000.0,554583.0,554583.0,552587.0,,0,0.0,552587.0,Place,PL_047_SCENE04.bmp,target
Emo_Nback_20180527,1,Behavioral,"['1', 'num_1', 'left', '2', 'num_2', 'right']",0,0,0,Emo_Nback_20180527_v1-ABCD1234,1.0.0.1180,Verdana,1,Right,60.2729473979,ABCD1234,"['2', 'num_2', 'right']",1,Professional,2.0.10.356,2.0.10.356,06/25/2018,22:10:20,Stimuli/,2.0.10.252,0,1,0,160,['space'],8,0-Back,,,,,,,,,,,,,,,,500.0,557584.0,557584.0,557083.0,557083.0,,,,,,0.0,Match,2000.0,557083.0,557083.0,555087.0,,0,0.0,555087.0,Place,PL_047_SCENE04.bmp,target
Emo_Nback_20180527,1,Behavioral,"['1', 'num_1', 'left', '2', 'num_2', 'right']",0,0,0,Emo_Nback_20180527_v1-ABCD1234,1.0.0.1180,Verdana,1,Right,60.2729473979,ABCD1234,"['2', 'num_2', 'right']",1,Professional,2.0.10.356,2.0.10.356,06/25/2018,22:10:20,Stimuli/,2.0.10.252,0,1,0,160,['space'],8,0-Back,,,,,,,,,,,,,,,,500.0,560083.0,560083.0,559585.0,559585.0,,,,,,0.0,No Match,2000.0,559585.0,559585.0,557588.0,,0,0.0,557588.0,Place,PL_049_SCENE06.bmp,nonlure
Emo_Nback_20180527,1,Behavioral,"['1', 'num_1', 'left', '2', 'num_2', 'right']",0,0,0,Emo_Nback_20180527_v1-ABCD1234,1.0.0.1180,Verdana,1,Right,60.2729473979,ABCD1234,"['2', 'num_2', 'right']",1,Professional,2.0.10.356,2.0.10.356,06/25/2018,22:10:20,Stimuli/,2.0.10.252,0,1,0,160,['space'],8,0-Back,,,,,,,,,,,,,,,,500.0,562583.0,562583.0,562084.0,562084.0,,,,,,0.0,No Match,2000.0,562084.0,562084.0,560088.0,,0,0.0,560088.0,Place,PL_050_SCENE07.bmp,nonlure
Emo_Nback_20180527,1,Behavioral,"['1', 'num_1', 'left', '2', 'num_2', 'right']",0,0,0,Emo_Nback_20180527_v1-ABCD1234,1.0.0.1180,Verdana,1,Right,60.2729473979,ABCD1234,"['2', 'num_2', 'right']",1,Professional,2.0.10.356,2.0.10.356,06/25/2018,22:10:20,Stimuli/,2.0.10.252,0,1,0,160,['space'],8,0-Back,,,,,,,,,,,,,,,,500.0,565084.0,565084.0,564585.0,564585.0,,,,,,0.0,No Match,2000.0,564585.0,564585.0,562588.0,,0,0.0,562588.0,Place,PL_048_SCENE05.bmp,lure
Emo_Nback_20180527,1,Behavioral,"['1', 'num_1', 'left', '2', 'num_2', 'right']",0,0,0,Emo_Nback_20180527_v1-ABCD1234,1.0.0.1180,Verdana,1,Right,60.2729473979,ABCD1234,"['2', 'num_2', 'right']",1,Professional,2.0.10.356,2.0.10.356,06/25/2018,22:10:20,Stimuli/,2.0.10.252,0,1,0,160,['space'],None,Fix15secPROC,,,,,,,,,,,,,,,,,,,,,15000.0,580087.0,580087.0,565086.0,565086.0,,,,,,,,0,,,None,None,None
