TargetType,Run,Stimulus,RunTrialNumber_Block,StimType,BlockType,Stim_CRESP,Block,nBack.thisRepN,nBack.thisTrialN,nBack.thisN,nBack.thisIndex,Stim.RESP,Stim.RT,Stim.CRESP,CueFix.FinishTime,Cue2Back.StartTime,Cue2Back.FinishTime,Cue2Back.OffsetTime,CueFix.StartTime,CueFix.OnsetTime,CueFix.OffsetTime,Cue2Back.Duration,Cue2Back.OnsetTime,CueFix.Duration,Stim.ACC,Stim.StartTime,Stim.FinishTime,Stim.Duration,Stim.OnsetTime,Fix.StartTime,Stim.RTTime,Stim.OffsetTime,Fix.OnsetTime,Fix.Duration,Fix.OffsetTime,Fix.FinishTime,CueTarget.OnsetTime,CueTarget.OffsetTime,CueTarget.StartTime,CueTarget.FinishTime,CueTarget.Duration,Fix15sec.OnsetTime,Fix15sec.Duration,Fix15sec.FinishTime,Fix15sec.StartTime,Fix15sec.OffsetTime,Allowed,DataFile.Basename,Group,Target,FontStyle,RunNumber,Handedness,NARGUID,SUBID,triggercode,SessionDate,Version,SessionTime,RuntimeCapabilities,Clock.Information,date,RuntimeVersion,SessionStart,ExperimentName,TrialsPerRun[Session],Debugging,Run,ExperimentVersion,ConsecNonResp[Session],TotalRespGreater200[Session],Nontarget,StudioVersion,Session,RuntimeVersionExpected,ConsecRTLess200[Session],Goggles,StimuliDir,Time Point,Main.RefreshRate,Subject,
"",All,"","",Faces,Cue2Back,"",1.0,0,0,0,0,,0,"",11939,11939,14429,14429,11429,11429,11939,2500,11939,500,,,,,,,,,,,,,,,,,,,,,,,"['1', 'num_1', 'left', '2', 'num_2', 'right']",Emo_Nback_20180527_v1-ABCD1234,1,1,Verdana,1,Right,ABCD1234,0,"['5', '7', '^', 'num_5', 'num_7', '=']",08/09/2018,1,17:24:02,Professional,0,2018-08-09_172402,2.0.10.356,,Emo_Nback_20180527,160,False,All,1.0.0.1180,0,0,"['2', 'num_2', 'right']",2.0.10.252,MRI,2.0.10.356,0,False,Stimuli/,Year 2,59.9383225917,1,
nonlure,All,23M_HO.bmp,2,PosFace,2-Back,No Match,1.0,0,1,1,1,,0,No Match,,,,,,,,,,,0,14436,16429,2000,14437,16429,0,16429,16429,500,16929,16929,,,,,,,,,,,"['1', 'num_1', 'left', '2', 'num_2', 'right']",Emo_Nback_20180527_v1-ABCD1234,1,1,Verdana,1,Right,ABCD1234,0,"['5', '7', '^', 'num_5', 'num_7', '=']",08/09/2018,1,17:24:02,Professional,0,2018-08-09_172402,2.0.10.356,,Emo_Nback_20180527,160,False,All,1.0.0.1180,0,0,"['2', 'num_2', 'right']",2.0.10.252,MRI,2.0.10.356,0,False,Stimuli/,Year 2,59.9383225917,1,
nonlure,All,12F_HO.bmp,3,PosFace,2-Back,No Match,1.0,0,2,2,2,,0,No Match,,,,,,,,,,,0,16936,18931,2000,16937,18931,0,18931,18931,500,19429,19429,,,,,,,,,,,"['1', 'num_1', 'left', '2', 'num_2', 'right']",Emo_Nback_20180527_v1-ABCD1234,1,1,Verdana,1,Right,ABCD1234,0,"['5', '7', '^', 'num_5', 'num_7', '=']",08/09/2018,1,17:24:02,Professional,0,2018-08-09_172402,2.0.10.356,,Emo_Nback_20180527,160,False,All,1.0.0.1180,0,0,"['2', 'num_2', 'right']",2.0.10.252,MRI,2.0.10.356,0,False,Stimuli/,Year 2,59.9383225917,1,
nonlure,All,AF02_HO.bmp,4,PosFace,2-Back,No Match,1.0,0,3,3,3,,0,No Match,,,,,,,,,,,0,19437,21430,2000,19437,21430,0,21429,21430,500,21930,21930,,,,,,,,,,,"['1', 'num_1', 'left', '2', 'num_2', 'right']",Emo_Nback_20180527_v1-ABCD1234,1,1,Verdana,1,Right,ABCD1234,0,"['5', '7', '^', 'num_5', 'num_7', '=']",08/09/2018,1,17:24:02,Professional,0,2018-08-09_172402,2.0.10.356,,Emo_Nback_20180527,160,False,All,1.0.0.1180,0,0,"['2', 'num_2', 'right']",2.0.10.252,MRI,2.0.10.356,0,False,Stimuli/,Year 2,59.9383225917,1,
target,All,12F_HO.bmp,5,PosFace,2-Back,Match,1.0,0,4,4,4,,0,Match,,,,,,,,,,,0,21935,23931,2000,21935,23931,0,23931,23931,500,24430,24430,,,,,,,,,,,"['1', 'num_1', 'left', '2', 'num_2', 'right']",Emo_Nback_20180527_v1-ABCD1234,1,1,Verdana,1,Right,ABCD1234,0,"['5', '7', '^', 'num_5', 'num_7', '=']",08/09/2018,1,17:24:02,Professional,0,2018-08-09_172402,2.0.10.356,,Emo_Nback_20180527,160,False,All,1.0.0.1180,0,0,"['2', 'num_2', 'right']",2.0.10.252,MRI,2.0.10.356,0,False,Stimuli/,Year 2,59.9383225917,1,
nonlure,All,WM011_HO.bmp,6,PosFace,2-Back,No Match,1.0,0,5,5,5,,0,No Match,,,,,,,,,,,0,24439,26431,2000,24440,26431,0,26431,26431,500,26930,26930,,,,,,,,,,,"['1', 'num_1', 'left', '2', 'num_2', 'right']",Emo_Nback_20180527_v1-ABCD1234,1,1,Verdana,1,Right,ABCD1234,0,"['5', '7', '^', 'num_5', 'num_7', '=']",08/09/2018,1,17:24:02,Professional,0,2018-08-09_172402,2.0.10.356,,Emo_Nback_20180527,160,False,All,1.0.0.1180,0,0,"['2', 'num_2', 'right']",2.0.10.252,MRI,2.0.10.356,0,False,Stimuli/,Year 2,59.9383225917,1,
nonlure,All,HM04_HO.bmp,7,PosFace,2-Back,No Match,1.0,0,6,6,6,,0,No Match,,,,,,,,,,,0,26938,28931,2000,26938,28931,0,28931,28931,500,29431,29431,,,,,,,,,,,"['1', 'num_1', 'left', '2', 'num_2', 'right']",Emo_Nback_20180527_v1-ABCD1234,1,1,Verdana,1,Right,ABCD1234,0,"['5', '7', '^', 'num_5', 'num_7', '=']",08/09/2018,1,17:24:02,Professional,0,2018-08-09_172402,2.0.10.356,,Emo_Nback_20180527,160,False,All,1.0.0.1180,0,0,"['2', 'num_2', 'right']",2.0.10.252,MRI,2.0.10.356,0,False,Stimuli/,Year 2,59.9383225917,1,
lure,All,AF02_HO.bmp,8,PosFace,2-Back,No Match,1.0,0,7,7,7,,0,No Match,,,,,,,,,,,0,29437,31431,2000,29437,31431,0,31431,31431,500,31931,31931,,,,,,,,,,,"['1', 'num_1', 'left', '2', 'num_2', 'right']",Emo_Nback_20180527_v1-ABCD1234,1,1,Verdana,1,Right,ABCD1234,0,"['5', '7', '^', 'num_5', 'num_7', '=']",08/09/2018,1,17:24:02,Professional,0,2018-08-09_172402,2.0.10.356,,Emo_Nback_20180527,160,False,All,1.0.0.1180,0,0,"['2', 'num_2', 'right']",2.0.10.252,MRI,2.0.10.356,0,False,Stimuli/,Year 2,59.9383225917,1,
nonlure,All,BF037_HO.bmp,9,PosFace,2-Back,No Match,1.0,0,8,8,8,,0,No Match,,,,,,,,,,,0,31942,33931,2000,31942,33931,0,33931,33931,500,34431,34431,,,,,,,,,,,"['1', 'num_1', 'left', '2', 'num_2', 'right']",Emo_Nback_20180527_v1-ABCD1234,1,1,Verdana,1,Right,ABCD1234,0,"['5', '7', '^', 'num_5', 'num_7', '=']",08/09/2018,1,17:24:02,Professional,0,2018-08-09_172402,2.0.10.356,,Emo_Nback_20180527,160,False,All,1.0.0.1180,0,0,"['2', 'num_2', 'right']",2.0.10.252,MRI,2.0.10.356,0,False,Stimuli/,Year 2,59.9383225917,1,
lure,All,WM011_HO.bmp,10,PosFace,2-Back,No Match,1.0,0,9,9,9,,0,No Match,,,,,,,,,,,0,34437,36432,2000,34437,36432,0,36432,36432,500,36932,36932,,,,,,,,,,,"['1', 'num_1', 'left', '2', 'num_2', 'right']",Emo_Nback_20180527_v1-ABCD1234,1,1,Verdana,1,Right,ABCD1234,0,"['5', '7', '^', 'num_5', 'num_7', '=']",08/09/2018,1,17:24:02,Professional,0,2018-08-09_172402,2.0.10.356,,Emo_Nback_20180527,160,False,All,1.0.0.1180,0,0,"['2', 'num_2', 'right']",2.0.10.252,MRI,2.0.10.356,0,False,Stimuli/,Year 2,59.9383225917,1,
target,All,BF037_HO.bmp,11,PosFace,2-Back,Match,1.0,0,10,10,10,,0,Match,,,,,,,,,,,0,36937,38932,2000,36938,38932,0,38932,38932,500,39432,39432,,,,,,,,,,,"['1', 'num_1', 'left', '2', 'num_2', 'right']",Emo_Nback_20180527_v1-ABCD1234,1,1,Verdana,1,Right,ABCD1234,0,"['5', '7', '^', 'num_5', 'num_7', '=']",08/09/2018,1,17:24:02,Professional,0,2018-08-09_172402,2.0.10.356,,Emo_Nback_20180527,160,False,All,1.0.0.1180,0,0,"['2', 'num_2', 'right']",2.0.10.252,MRI,2.0.10.356,0,False,Stimuli/,Year 2,59.9383225917,1,
target,All,AF218_NC.bmp,None,Faces,Cue0Back,,2.0,0,11,11,11,,0,,39933,,,,39443,39443,39932,,,500,,,,,,,,,,,,,39933,42433,39933,42433,2500,,,,,,"['1', 'num_1', 'left', '2', 'num_2', 'right']",Emo_Nback_20180527_v1-ABCD1234,1,1,Verdana,1,Right,ABCD1234,0,"['5', '7', '^', 'num_5', 'num_7', '=']",08/09/2018,1,17:24:02,Professional,0,2018-08-09_172402,2.0.10.356,,Emo_Nback_20180527,160,False,All,1.0.0.1180,0,0,"['2', 'num_2', 'right']",2.0.10.252,MRI,2.0.10.356,0,False,Stimuli/,Year 2,59.9383225917,1,
nonlure,All,LF206_NC.bmp,12,NeutFace,0-Back,No Match,2.0,0,12,12,12,,0,No Match,,,,,,,,,,,0,42442,44434,2000,42442,44434,0,44434,44434,500,44933,44933,,,,,,,,,,,"['1', 'num_1', 'left', '2', 'num_2', 'right']",Emo_Nback_20180527_v1-ABCD1234,1,1,Verdana,1,Right,ABCD1234,0,"['5', '7', '^', 'num_5', 'num_7', '=']",08/09/2018,1,17:24:02,Professional,0,2018-08-09_172402,2.0.10.356,,Emo_Nback_20180527,160,False,All,1.0.0.1180,0,0,"['2', 'num_2', 'right']",2.0.10.252,MRI,2.0.10.356,0,False,Stimuli/,Year 2,59.9383225917,1,
target,All,AF218_NC.bmp,13,NeutFace,0-Back,Match,2.0,0,13,13,13,,0,Match,,,,,,,,,,,0,44938,46933,2000,44939,46933,0,46933,46933,500,47433,47433,,,,,,,,,,,"['1', 'num_1', 'left', '2', 'num_2', 'right']",Emo_Nback_20180527_v1-ABCD1234,1,1,Verdana,1,Right,ABCD1234,0,"['5', '7', '^', 'num_5', 'num_7', '=']",08/09/2018,1,17:24:02,Professional,0,2018-08-09_172402,2.0.10.356,,Emo_Nback_20180527,160,False,All,1.0.0.1180,0,0,"['2', 'num_2', 'right']",2.0.10.252,MRI,2.0.10.356,0,False,Stimuli/,Year 2,59.9383225917,1,
nonlure,All,42M_NC.bmp,14,NeutFace,0-Back,No Match,2.0,0,14,14,14,,0,No Match,,,,,,,,,,,0,47443,49434,2000,47444,49434,0,49434,49434,500,49933,49934,,,,,,,,,,,"['1', 'num_1', 'left', '2', 'num_2', 'right']",Emo_Nback_20180527_v1-ABCD1234,1,1,Verdana,1,Right,ABCD1234,0,"['5', '7', '^', 'num_5', 'num_7', '=']",08/09/2018,1,17:24:02,Professional,0,2018-08-09_172402,2.0.10.356,,Emo_Nback_20180527,160,False,All,1.0.0.1180,0,0,"['2', 'num_2', 'right']",2.0.10.252,MRI,2.0.10.356,0,False,Stimuli/,Year 2,59.9383225917,1,
nonlure,All,BM09_NC.bmp,15,NeutFace,0-Back,No Match,2.0,0,15,15,15,,0,No Match,,,,,,,,,,,0,49944,51934,2000,49944,51934,0,51934,51935,500,52434,52434,,,,,,,,,,,"['1', 'num_1', 'left', '2', 'num_2', 'right']",Emo_Nback_20180527_v1-ABCD1234,1,1,Verdana,1,Right,ABCD1234,0,"['5', '7', '^', 'num_5', 'num_7', '=']",08/09/2018,1,17:24:02,Professional,0,2018-08-09_172402,2.0.10.356,,Emo_Nback_20180527,160,False,All,1.0.0.1180,0,0,"['2', 'num_2', 'right']",2.0.10.252,MRI,2.0.10.356,0,False,Stimuli/,Year 2,59.9383225917,1,
lure,All,BM09_NC.bmp,16,NeutFace,0-Back,No Match,2.0,0,16,16,16,,0,No Match,,,,,,,,,,,0,52440,54435,2000,52440,54435,0,54435,54435,500,54934,54934,,,,,,,,,,,"['1', 'num_1', 'left', '2', 'num_2', 'right']",Emo_Nback_20180527_v1-ABCD1234,1,1,Verdana,1,Right,ABCD1234,0,"['5', '7', '^', 'num_5', 'num_7', '=']",08/09/2018,1,17:24:02,Professional,0,2018-08-09_172402,2.0.10.356,,Emo_Nback_20180527,160,False,All,1.0.0.1180,0,0,"['2', 'num_2', 'right']",2.0.10.252,MRI,2.0.10.356,0,False,Stimuli/,Year 2,59.9383225917,1,
target,All,AF218_NC.bmp,17,NeutFace,0-Back,Match,2.0,0,17,17,17,,0,Match,,,,,,,,,,,0,54940,56935,2000,54940,56935,0,56935,56935,500,57434,57435,,,,,,,,,,,"['1', 'num_1', 'left', '2', 'num_2', 'right']",Emo_Nback_20180527_v1-ABCD1234,1,1,Verdana,1,Right,ABCD1234,0,"['5', '7', '^', 'num_5', 'num_7', '=']",08/09/2018,1,17:24:02,Professional,0,2018-08-09_172402,2.0.10.356,,Emo_Nback_20180527,160,False,All,1.0.0.1180,0,0,"['2', 'num_2', 'right']",2.0.10.252,MRI,2.0.10.356,0,False,Stimuli/,Year 2,59.9383225917,1,
nonlure,All,7F_NC.bmp,18,NeutFace,0-Back,No Match,2.0,0,18,18,18,,0,No Match,,,,,,,,,,,0,57445,59435,2000,57445,59435,0,59435,59435,500,59935,59935,,,,,,,,,,,"['1', 'num_1', 'left', '2', 'num_2', 'right']",Emo_Nback_20180527_v1-ABCD1234,1,1,Verdana,1,Right,ABCD1234,0,"['5', '7', '^', 'num_5', 'num_7', '=']",08/09/2018,1,17:24:02,Professional,0,2018-08-09_172402,2.0.10.356,,Emo_Nback_20180527,160,False,All,1.0.0.1180,0,0,"['2', 'num_2', 'right']",2.0.10.252,MRI,2.0.10.356,0,False,Stimuli/,Year 2,59.9383225917,1,
lure,All,7F_NC.bmp,19,NeutFace,0-Back,No Match,2.0,0,19,19,19,,0,No Match,,,,,,,,,,,0,59941,61935,2000,59941,61935,0,61935,61935,500,62435,62435,,,,,,,,,,,"['1', 'num_1', 'left', '2', 'num_2', 'right']",Emo_Nback_20180527_v1-ABCD1234,1,1,Verdana,1,Right,ABCD1234,0,"['5', '7', '^', 'num_5', 'num_7', '=']",08/09/2018,1,17:24:02,Professional,0,2018-08-09_172402,2.0.10.356,,Emo_Nback_20180527,160,False,All,1.0.0.1180,0,0,"['2', 'num_2', 'right']",2.0.10.252,MRI,2.0.10.356,0,False,Stimuli/,Year 2,59.9383225917,1,
lure,All,42M_NC.bmp,20,NeutFace,0-Back,No Match,2.0,0,20,20,20,,0,No Match,,,,,,,,,,,0,62444,64436,2000,62444,64436,0,64436,64436,500,64935,64935,,,,,,,,,,,"['1', 'num_1', 'left', '2', 'num_2', 'right']",Emo_Nback_20180527_v1-ABCD1234,1,1,Verdana,1,Right,ABCD1234,0,"['5', '7', '^', 'num_5', 'num_7', '=']",08/09/2018,1,17:24:02,Professional,0,2018-08-09_172402,2.0.10.356,,Emo_Nback_20180527,160,False,All,1.0.0.1180,0,0,"['2', 'num_2', 'right']",2.0.10.252,MRI,2.0.10.356,0,False,Stimuli/,Year 2,59.9383225917,1,
nonlure,All,LM207_NC.bmp,21,NeutFace,0-Back,No Match,2.0,0,21,21,21,,0,No Match,,,,,,,,,,,0,64946,66937,2000,64946,66937,0,66937,66937,500,67436,67436,,,,,,,,,,,"['1', 'num_1', 'left', '2', 'num_2', 'right']",Emo_Nback_20180527_v1-ABCD1234,1,1,Verdana,1,Right,ABCD1234,0,"['5', '7', '^', 'num_5', 'num_7', '=']",08/09/2018,1,17:24:02,Professional,0,2018-08-09_172402,2.0.10.356,,Emo_Nback_20180527,160,False,All,1.0.0.1180,0,0,"['2', 'num_2', 'right']",2.0.10.252,MRI,2.0.10.356,0,False,Stimuli/,Year 2,59.9383225917,1,
None,All,None,None,None,Fix15secPROC,,None,0,22,22,22,,0,,,,,,,,,,,,,,,,,,,,,,,,,,,,,67439,15000,82438,67439,82438,"['1', 'num_1', 'left', '2', 'num_2', 'right']",Emo_Nback_20180527_v1-ABCD1234,1,1,Verdana,1,Right,ABCD1234,0,"['5', '7', '^', 'num_5', 'num_7', '=']",08/09/2018,1,17:24:02,Professional,0,2018-08-09_172402,2.0.10.356,,Emo_Nback_20180527,160,False,All,1.0.0.1180,0,0,"['2', 'num_2', 'right']",2.0.10.252,MRI,2.0.10.356,0,False,Stimuli/,Year 2,59.9383225917,1,
None,All,None,None,Faces,Cue2Back,,3.0,0,23,23,23,,0,,82939,82939,85439,85439,82443,82443,82939,2500,82939,500,,,,,,,,,,,,,,,,,,,,,,,"['1', 'num_1', 'left', '2', 'num_2', 'right']",Emo_Nback_20180527_v1-ABCD1234,1,1,Verdana,1,Right,ABCD1234,0,"['5', '7', '^', 'num_5', 'num_7', '=']",08/09/2018,1,17:24:02,Professional,0,2018-08-09_172402,2.0.10.356,,Emo_Nback_20180527,160,False,All,1.0.0.1180,0,0,"['2', 'num_2', 'right']",2.0.10.252,MRI,2.0.10.356,0,False,Stimuli/,Year 2,59.9383225917,1,
nonlure,All,17F_FO.bmp,22,NegFace,2-Back,No Match,3.0,0,24,24,24,,0,No Match,,,,,,,,,,,0,85449,87439,2000,85449,87439,0,87439,87439,500,87938,87939,,,,,,,,,,,"['1', 'num_1', 'left', '2', 'num_2', 'right']",Emo_Nback_20180527_v1-ABCD1234,1,1,Verdana,1,Right,ABCD1234,0,"['5', '7', '^', 'num_5', 'num_7', '=']",08/09/2018,1,17:24:02,Professional,0,2018-08-09_172402,2.0.10.356,,Emo_Nback_20180527,160,False,All,1.0.0.1180,0,0,"['2', 'num_2', 'right']",2.0.10.252,MRI,2.0.10.356,0,False,Stimuli/,Year 2,59.9383225917,1,
nonlure,All,HM03_FO.bmp,23,NegFace,2-Back,No Match,3.0,0,25,25,25,,0,No Match,,,,,,,,,,,0,87947,89940,2000,87947,89940,0,89940,89940,500,90439,90439,,,,,,,,,,,"['1', 'num_1', 'left', '2', 'num_2', 'right']",Emo_Nback_20180527_v1-ABCD1234,1,1,Verdana,1,Right,ABCD1234,0,"['5', '7', '^', 'num_5', 'num_7', '=']",08/09/2018,1,17:24:02,Professional,0,2018-08-09_172402,2.0.10.356,,Emo_Nback_20180527,160,False,All,1.0.0.1180,0,0,"['2', 'num_2', 'right']",2.0.10.252,MRI,2.0.10.356,0,False,Stimuli/,Year 2,59.9383225917,1,
nonlure,All,BM045_FO.bmp,24,NegFace,2-Back,No Match,3.0,0,26,26,26,,0,No Match,,,,,,,,,,,0,90448,92439,2000,90448,92439,0,92439,92439,500,92939,92940,,,,,,,,,,,"['1', 'num_1', 'left', '2', 'num_2', 'right']",Emo_Nback_20180527_v1-ABCD1234,1,1,Verdana,1,Right,ABCD1234,0,"['5', '7', '^', 'num_5', 'num_7', '=']",08/09/2018,1,17:24:02,Professional,0,2018-08-09_172402,2.0.10.356,,Emo_Nback_20180527,160,False,All,1.0.0.1180,0,0,"['2', 'num_2', 'right']",2.0.10.252,MRI,2.0.10.356,0,False,Stimuli/,Year 2,59.9383225917,1,
target,All,HM03_FO.bmp,25,NegFace,2-Back,Match,3.0,0,27,27,27,,0,Match,,,,,,,,,,,0,92945,94941,2000,92945,94941,0,94940,94941,500,95439,95439,,,,,,,,,,,"['1', 'num_1', 'left', '2', 'num_2', 'right']",Emo_Nback_20180527_v1-ABCD1234,1,1,Verdana,1,Right,ABCD1234,0,"['5', '7', '^', 'num_5', 'num_7', '=']",08/09/2018,1,17:24:02,Professional,0,2018-08-09_172402,2.0.10.356,,Emo_Nback_20180527,160,False,All,1.0.0.1180,0,0,"['2', 'num_2', 'right']",2.0.10.252,MRI,2.0.10.356,0,False,Stimuli/,Year 2,59.9383225917,1,
lure,All,17F_FO.bmp,26,NegFace,2-Back,No Match,3.0,0,28,28,28,,0,No Match,,,,,,,,,,,0,95445,97441,2000,95445,97441,0,97440,97441,500,97940,97940,,,,,,,,,,,"['1', 'num_1', 'left', '2', 'num_2', 'right']",Emo_Nback_20180527_v1-ABCD1234,1,1,Verdana,1,Right,ABCD1234,0,"['5', '7', '^', 'num_5', 'num_7', '=']",08/09/2018,1,17:24:02,Professional,0,2018-08-09_172402,2.0.10.356,,Emo_Nback_20180527,160,False,All,1.0.0.1180,0,0,"['2', 'num_2', 'right']",2.0.10.252,MRI,2.0.10.356,0,False,Stimuli/,Year 2,59.9383225917,1,
lure,All,BM045_FO.bmp,27,NegFace,2-Back,No Match,3.0,0,29,29,29,,0,No Match,,,,,,,,,,,0,97946,99941,2000,97946,99941,0,99941,99941,500,100440,100440,,,,,,,,,,,"['1', 'num_1', 'left', '2', 'num_2', 'right']",Emo_Nback_20180527_v1-ABCD1234,1,1,Verdana,1,Right,ABCD1234,0,"['5', '7', '^', 'num_5', 'num_7', '=']",08/09/2018,1,17:24:02,Professional,0,2018-08-09_172402,2.0.10.356,,Emo_Nback_20180527,160,False,All,1.0.0.1180,0,0,"['2', 'num_2', 'right']",2.0.10.252,MRI,2.0.10.356,0,False,Stimuli/,Year 2,59.9383225917,1,
nonlure,All,9F_FO.bmp,28,NegFace,2-Back,No Match,3.0,0,30,30,30,,0,No Match,,,,,,,,,,,0,100450,102441,2000,100451,102441,0,102441,102441,500,102941,102941,,,,,,,,,,,"['1', 'num_1', 'left', '2', 'num_2', 'right']",Emo_Nback_20180527_v1-ABCD1234,1,1,Verdana,1,Right,ABCD1234,0,"['5', '7', '^', 'num_5', 'num_7', '=']",08/09/2018,1,17:24:02,Professional,0,2018-08-09_172402,2.0.10.356,,Emo_Nback_20180527,160,False,All,1.0.0.1180,0,0,"['2', 'num_2', 'right']",2.0.10.252,MRI,2.0.10.356,0,False,Stimuli/,Year 2,59.9383225917,1,
nonlure,All,WM004_FO.bmp,29,NegFace,2-Back,No Match,3.0,0,31,31,31,,0,No Match,,,,,,,,,,,0,102950,104942,2000,102950,104942,0,104942,104942,500,105441,105441,,,,,,,,,,,"['1', 'num_1', 'left', '2', 'num_2', 'right']",Emo_Nback_20180527_v1-ABCD1234,1,1,Verdana,1,Right,ABCD1234,0,"['5', '7', '^', 'num_5', 'num_7', '=']",08/09/2018,1,17:24:02,Professional,0,2018-08-09_172402,2.0.10.356,,Emo_Nback_20180527,160,False,All,1.0.0.1180,0,0,"['2', 'num_2', 'right']",2.0.10.252,MRI,2.0.10.356,0,False,Stimuli/,Year 2,59.9383225917,1,
target,All,9F_FO.bmp,30,NegFace,2-Back,Match,3.0,0,32,32,32,,0,Match,,,,,,,,,,,0,105446,107426,2000,105447,107426,0,107426,107426,500,107941,107941,,,,,,,,,,,"['1', 'num_1', 'left', '2', 'num_2', 'right']",Emo_Nback_20180527_v1-ABCD1234,1,1,Verdana,1,Right,ABCD1234,0,"['5', '7', '^', 'num_5', 'num_7', '=']",08/09/2018,1,17:24:02,Professional,0,2018-08-09_172402,2.0.10.356,,Emo_Nback_20180527,160,False,All,1.0.0.1180,0,0,"['2', 'num_2', 'right']",2.0.10.252,MRI,2.0.10.356,0,False,Stimuli/,Year 2,59.9383225917,1,
nonlure,All,BF06_FO.bmp,31,NegFace,2-Back,No Match,3.0,0,33,33,33,,0,No Match,,,,,,,,,,,0,107948,109926,2000,107949,109926,0,109926,109926,500,110425,110425,,,,,,,,,,,"['1', 'num_1', 'left', '2', 'num_2', 'right']",Emo_Nback_20180527_v1-ABCD1234,1,1,Verdana,1,Right,ABCD1234,0,"['5', '7', '^', 'num_5', 'num_7', '=']",08/09/2018,1,17:24:02,Professional,0,2018-08-09_172402,2.0.10.356,,Emo_Nback_20180527,160,False,All,1.0.0.1180,0,0,"['2', 'num_2', 'right']",2.0.10.252,MRI,2.0.10.356,0,False,Stimuli/,Year 2,59.9383225917,1,
target,All,34M_HO.bmp,None,Faces,Cue0Back,,4.0,0,34,34,34,,0,,110926,,,,110434,110434,110926,,,500,,,,,,,,,,,,,110926,113425,110926,113425,2500,,,,,,"['1', 'num_1', 'left', '2', 'num_2', 'right']",Emo_Nback_20180527_v1-ABCD1234,1,1,Verdana,1,Right,ABCD1234,0,"['5', '7', '^', 'num_5', 'num_7', '=']",08/09/2018,1,17:24:02,Professional,0,2018-08-09_172402,2.0.10.356,,Emo_Nback_20180527,160,False,All,1.0.0.1180,0,0,"['2', 'num_2', 'right']",2.0.10.252,MRI,2.0.10.356,0,False,Stimuli/,Year 2,59.9383225917,1,
target,All,34M_HO.bmp,32,PosFace,0-Back,Match,4.0,0,35,35,35,,0,Match,,,,,,,,,,,0,113430,115426,2000,113430,115426,0,115426,115426,500,115926,115926,,,,,,,,,,,"['1', 'num_1', 'left', '2', 'num_2', 'right']",Emo_Nback_20180527_v1-ABCD1234,1,1,Verdana,1,Right,ABCD1234,0,"['5', '7', '^', 'num_5', 'num_7', '=']",08/09/2018,1,17:24:02,Professional,0,2018-08-09_172402,2.0.10.356,,Emo_Nback_20180527,160,False,All,1.0.0.1180,0,0,"['2', 'num_2', 'right']",2.0.10.252,MRI,2.0.10.356,0,False,Stimuli/,Year 2,59.9383225917,1,
nonlure,All,BM08_HO.bmp,33,PosFace,0-Back,No Match,4.0,0,36,36,36,,0,No Match,,,,,,,,,,,0,115936,117927,2000,115937,117927,0,117927,117927,500,118426,118426,,,,,,,,,,,"['1', 'num_1', 'left', '2', 'num_2', 'right']",Emo_Nback_20180527_v1-ABCD1234,1,1,Verdana,1,Right,ABCD1234,0,"['5', '7', '^', 'num_5', 'num_7', '=']",08/09/2018,1,17:24:02,Professional,0,2018-08-09_172402,2.0.10.356,,Emo_Nback_20180527,160,False,All,1.0.0.1180,0,0,"['2', 'num_2', 'right']",2.0.10.252,MRI,2.0.10.356,0,False,Stimuli/,Year 2,59.9383225917,1,
nonlure,All,HF04_HO.bmp,34,PosFace,0-Back,No Match,4.0,0,37,37,37,,0,No Match,,,,,,,,,,,0,118435,120427,2000,118435,120427,0,120427,120427,500,120926,120926,,,,,,,,,,,"['1', 'num_1', 'left', '2', 'num_2', 'right']",Emo_Nback_20180527_v1-ABCD1234,1,1,Verdana,1,Right,ABCD1234,0,"['5', '7', '^', 'num_5', 'num_7', '=']",08/09/2018,1,17:24:02,Professional,0,2018-08-09_172402,2.0.10.356,,Emo_Nback_20180527,160,False,All,1.0.0.1180,0,0,"['2', 'num_2', 'right']",2.0.10.252,MRI,2.0.10.356,0,False,Stimuli/,Year 2,59.9383225917,1,
nonlure,All,BF002_HO.bmp,35,PosFace,0-Back,No Match,4.0,0,38,38,38,,0,No Match,,,,,,,,,,,0,120935,122927,2000,120935,122927,0,122927,122927,500,123427,123427,,,,,,,,,,,"['1', 'num_1', 'left', '2', 'num_2', 'right']",Emo_Nback_20180527_v1-ABCD1234,1,1,Verdana,1,Right,ABCD1234,0,"['5', '7', '^', 'num_5', 'num_7', '=']",08/09/2018,1,17:24:02,Professional,0,2018-08-09_172402,2.0.10.356,,Emo_Nback_20180527,160,False,All,1.0.0.1180,0,0,"['2', 'num_2', 'right']",2.0.10.252,MRI,2.0.10.356,0,False,Stimuli/,Year 2,59.9383225917,1,
lure,All,BM08_HO.bmp,36,PosFace,0-Back,No Match,4.0,0,39,39,39,,0,No Match,,,,,,,,,,,0,123432,125427,2000,123432,125427,0,125427,125428,500,125927,125927,,,,,,,,,,,"['1', 'num_1', 'left', '2', 'num_2', 'right']",Emo_Nback_20180527_v1-ABCD1234,1,1,Verdana,1,Right,ABCD1234,0,"['5', '7', '^', 'num_5', 'num_7', '=']",08/09/2018,1,17:24:02,Professional,0,2018-08-09_172402,2.0.10.356,,Emo_Nback_20180527,160,False,All,1.0.0.1180,0,0,"['2', 'num_2', 'right']",2.0.10.252,MRI,2.0.10.356,0,False,Stimuli/,Year 2,59.9383225917,1,
nonlure,All,45M_HO.bmp,37,PosFace,0-Back,No Match,4.0,0,40,40,40,,0,No Match,,,,,,,,,,,0,125937,127929,2000,125937,127929,0,127929,127929,500,128427,128427,,,,,,,,,,,"['1', 'num_1', 'left', '2', 'num_2', 'right']",Emo_Nback_20180527_v1-ABCD1234,1,1,Verdana,1,Right,ABCD1234,0,"['5', '7', '^', 'num_5', 'num_7', '=']",08/09/2018,1,17:24:02,Professional,0,2018-08-09_172402,2.0.10.356,,Emo_Nback_20180527,160,False,All,1.0.0.1180,0,0,"['2', 'num_2', 'right']",2.0.10.252,MRI,2.0.10.356,0,False,Stimuli/,Year 2,59.9383225917,1,
lure,All,45M_HO.bmp,38,PosFace,0-Back,No Match,4.0,0,41,41,41,,0,No Match,,,,,,,,,,,0,128432,130428,2000,128432,130428,0,130428,130428,500,130928,130928,,,,,,,,,,,"['1', 'num_1', 'left', '2', 'num_2', 'right']",Emo_Nback_20180527_v1-ABCD1234,1,1,Verdana,1,Right,ABCD1234,0,"['5', '7', '^', 'num_5', 'num_7', '=']",08/09/2018,1,17:24:02,Professional,0,2018-08-09_172402,2.0.10.356,,Emo_Nback_20180527,160,False,All,1.0.0.1180,0,0,"['2', 'num_2', 'right']",2.0.10.252,MRI,2.0.10.356,0,False,Stimuli/,Year 2,59.9383225917,1,
lure,All,BF002_HO.bmp,39,PosFace,0-Back,No Match,4.0,0,42,42,42,,0,No Match,,,,,,,,,,,0,130933,132929,2000,130933,132929,0,132929,132929,500,133428,133428,,,,,,,,,,,"['1', 'num_1', 'left', '2', 'num_2', 'right']",Emo_Nback_20180527_v1-ABCD1234,1,1,Verdana,1,Right,ABCD1234,0,"['5', '7', '^', 'num_5', 'num_7', '=']",08/09/2018,1,17:24:02,Professional,0,2018-08-09_172402,2.0.10.356,,Emo_Nback_20180527,160,False,All,1.0.0.1180,0,0,"['2', 'num_2', 'right']",2.0.10.252,MRI,2.0.10.356,0,False,Stimuli/,Year 2,59.9383225917,1,
target,All,34M_HO.bmp,40,PosFace,0-Back,Match,4.0,0,43,43,43,,0,Match,,,,,,,,,,,0,133434,135428,2000,133434,135428,0,135428,135428,500,135929,135929,,,,,,,,,,,"['1', 'num_1', 'left', '2', 'num_2', 'right']",Emo_Nback_20180527_v1-ABCD1234,1,1,Verdana,1,Right,ABCD1234,0,"['5', '7', '^', 'num_5', 'num_7', '=']",08/09/2018,1,17:24:02,Professional,0,2018-08-09_172402,2.0.10.356,,Emo_Nback_20180527,160,False,All,1.0.0.1180,0,0,"['2', 'num_2', 'right']",2.0.10.252,MRI,2.0.10.356,0,False,Stimuli/,Year 2,59.9383225917,1,
nonlure,All,WF07_HO.bmp,41,PosFace,0-Back,No Match,4.0,0,44,44,44,,0,No Match,,,,,,,,,,,0,135937,137929,2000,135938,137929,0,137929,137929,500,138429,138429,,,,,,,,,,,"['1', 'num_1', 'left', '2', 'num_2', 'right']",Emo_Nback_20180527_v1-ABCD1234,1,1,Verdana,1,Right,ABCD1234,0,"['5', '7', '^', 'num_5', 'num_7', '=']",08/09/2018,1,17:24:02,Professional,0,2018-08-09_172402,2.0.10.356,,Emo_Nback_20180527,160,False,All,1.0.0.1180,0,0,"['2', 'num_2', 'right']",2.0.10.252,MRI,2.0.10.356,0,False,Stimuli/,Year 2,59.9383225917,1,
None,All,None,None,None,Fix15secPROC,,None,0,45,45,45,,0,,,,,,,,,,,,,,,,,,,,,,,,,,,,,138432,15000,153431,138432,153431,"['1', 'num_1', 'left', '2', 'num_2', 'right']",Emo_Nback_20180527_v1-ABCD1234,1,1,Verdana,1,Right,ABCD1234,0,"['5', '7', '^', 'num_5', 'num_7', '=']",08/09/2018,1,17:24:02,Professional,0,2018-08-09_172402,2.0.10.356,,Emo_Nback_20180527,160,False,All,1.0.0.1180,0,0,"['2', 'num_2', 'right']",2.0.10.252,MRI,2.0.10.356,0,False,Stimuli/,Year 2,59.9383225917,1,
target,All,PL_001_92012.bmp,42,Place,Cue0Back,,5.0,0,46,46,46,,0,,153931,,,,153437,153437,153931,,,500,,,,,,,,,,,,,153932,156432,153931,156432,2500,,,,,,"['1', 'num_1', 'left', '2', 'num_2', 'right']",Emo_Nback_20180527_v1-ABCD1234,1,1,Verdana,1,Right,ABCD1234,0,"['5', '7', '^', 'num_5', 'num_7', '=']",08/09/2018,1,17:24:02,Professional,0,2018-08-09_172402,2.0.10.356,,Emo_Nback_20180527,160,False,All,1.0.0.1180,0,0,"['2', 'num_2', 'right']",2.0.10.252,MRI,2.0.10.356,0,False,Stimuli/,Year 2,59.9383225917,1,
nonlure,All,PL_003_92016.bmp,43,Place,0-Back,No Match,5.0,0,47,47,47,,0,No Match,,,,,,,,,,,0,156439,158432,2000,156440,158432,0,158432,158432,500,158931,158932,,,,,,,,,,,"['1', 'num_1', 'left', '2', 'num_2', 'right']",Emo_Nback_20180527_v1-ABCD1234,1,1,Verdana,1,Right,ABCD1234,0,"['5', '7', '^', 'num_5', 'num_7', '=']",08/09/2018,1,17:24:02,Professional,0,2018-08-09_172402,2.0.10.356,,Emo_Nback_20180527,160,False,All,1.0.0.1180,0,0,"['2', 'num_2', 'right']",2.0.10.252,MRI,2.0.10.356,0,False,Stimuli/,Year 2,59.9383225917,1,
lure,All,PL_003_92016.bmp,44,Place,0-Back,No Match,5.0,0,48,48,48,,0,No Match,,,,,,,,,,,0,158937,160932,2000,158937,160932,0,160932,160932,500,161432,161432,,,,,,,,,,,"['1', 'num_1', 'left', '2', 'num_2', 'right']",Emo_Nback_20180527_v1-ABCD1234,1,1,Verdana,1,Right,ABCD1234,0,"['5', '7', '^', 'num_5', 'num_7', '=']",08/09/2018,1,17:24:02,Professional,0,2018-08-09_172402,2.0.10.356,,Emo_Nback_20180527,160,False,All,1.0.0.1180,0,0,"['2', 'num_2', 'right']",2.0.10.252,MRI,2.0.10.356,0,False,Stimuli/,Year 2,59.9383225917,1,
nonlure,All,PL_006_92025.bmp,45,Place,0-Back,No Match,5.0,0,49,49,49,,0,No Match,,,,,,,,,,,0,161442,163432,2000,161442,163432,0,163432,163432,500,163932,163932,,,,,,,,,,,"['1', 'num_1', 'left', '2', 'num_2', 'right']",Emo_Nback_20180527_v1-ABCD1234,1,1,Verdana,1,Right,ABCD1234,0,"['5', '7', '^', 'num_5', 'num_7', '=']",08/09/2018,1,17:24:02,Professional,0,2018-08-09_172402,2.0.10.356,,Emo_Nback_20180527,160,False,All,1.0.0.1180,0,0,"['2', 'num_2', 'right']",2.0.10.252,MRI,2.0.10.356,0,False,Stimuli/,Year 2,59.9383225917,1,
target,All,PL_001_92012.bmp,46,Place,0-Back,Match,5.0,0,50,50,50,,0,Match,,,,,,,,,,,0,163938,165932,2000,163938,165932,0,165932,165932,500,166432,166432,,,,,,,,,,,"['1', 'num_1', 'left', '2', 'num_2', 'right']",Emo_Nback_20180527_v1-ABCD1234,1,1,Verdana,1,Right,ABCD1234,0,"['5', '7', '^', 'num_5', 'num_7', '=']",08/09/2018,1,17:24:02,Professional,0,2018-08-09_172402,2.0.10.356,,Emo_Nback_20180527,160,False,All,1.0.0.1180,0,0,"['2', 'num_2', 'right']",2.0.10.252,MRI,2.0.10.356,0,False,Stimuli/,Year 2,59.9383225917,1,
nonlure,All,PL_004_92023.bmp,47,Place,0-Back,No Match,5.0,0,51,51,51,,0,No Match,,,,,,,,,,,0,166441,168433,2000,166442,168433,0,168433,168433,500,168933,168933,,,,,,,,,,,"['1', 'num_1', 'left', '2', 'num_2', 'right']",Emo_Nback_20180527_v1-ABCD1234,1,1,Verdana,1,Right,ABCD1234,0,"['5', '7', '^', 'num_5', 'num_7', '=']",08/09/2018,1,17:24:02,Professional,0,2018-08-09_172402,2.0.10.356,,Emo_Nback_20180527,160,False,All,1.0.0.1180,0,0,"['2', 'num_2', 'right']",2.0.10.252,MRI,2.0.10.356,0,False,Stimuli/,Year 2,59.9383225917,1,
nonlure,All,PL_005_92024.bmp,48,Place,0-Back,No Match,5.0,0,52,52,52,,0,No Match,,,,,,,,,,,0,168943,170933,2000,168943,170933,0,170933,170933,500,171433,171433,,,,,,,,,,,"['1', 'num_1', 'left', '2', 'num_2', 'right']",Emo_Nback_20180527_v1-ABCD1234,1,1,Verdana,1,Right,ABCD1234,0,"['5', '7', '^', 'num_5', 'num_7', '=']",08/09/2018,1,17:24:02,Professional,0,2018-08-09_172402,2.0.10.356,,Emo_Nback_20180527,160,False,All,1.0.0.1180,0,0,"['2', 'num_2', 'right']",2.0.10.252,MRI,2.0.10.356,0,False,Stimuli/,Year 2,59.9383225917,1,
target,All,PL_001_92012.bmp,49,Place,0-Back,Match,5.0,0,53,53,53,,0,Match,,,,,,,,,,,0,171439,173434,2000,171439,173434,0,173434,173434,500,173934,173934,,,,,,,,,,,"['1', 'num_1', 'left', '2', 'num_2', 'right']",Emo_Nback_20180527_v1-ABCD1234,1,1,Verdana,1,Right,ABCD1234,0,"['5', '7', '^', 'num_5', 'num_7', '=']",08/09/2018,1,17:24:02,Professional,0,2018-08-09_172402,2.0.10.356,,Emo_Nback_20180527,160,False,All,1.0.0.1180,0,0,"['2', 'num_2', 'right']",2.0.10.252,MRI,2.0.10.356,0,False,Stimuli/,Year 2,59.9383225917,1,
nonlure,All,PL_002_92014.bmp,50,Place,0-Back,No Match,5.0,0,54,54,54,,0,No Match,,,,,,,,,,,0,173942,175934,2000,173943,175934,0,175934,175934,500,176434,176434,,,,,,,,,,,"['1', 'num_1', 'left', '2', 'num_2', 'right']",Emo_Nback_20180527_v1-ABCD1234,1,1,Verdana,1,Right,ABCD1234,0,"['5', '7', '^', 'num_5', 'num_7', '=']",08/09/2018,1,17:24:02,Professional,0,2018-08-09_172402,2.0.10.356,,Emo_Nback_20180527,160,False,All,1.0.0.1180,0,0,"['2', 'num_2', 'right']",2.0.10.252,MRI,2.0.10.356,0,False,Stimuli/,Year 2,59.9383225917,1,
lure,All,PL_004_92023.bmp,51,Place,0-Back,No Match,5.0,0,55,55,55,,0,No Match,,,,,,,,,,,0,176441,178434,2000,176441,178434,0,178434,178434,500,178934,178934,,,,,,,,,,,"['1', 'num_1', 'left', '2', 'num_2', 'right']",Emo_Nback_20180527_v1-ABCD1234,1,1,Verdana,1,Right,ABCD1234,0,"['5', '7', '^', 'num_5', 'num_7', '=']",08/09/2018,1,17:24:02,Professional,0,2018-08-09_172402,2.0.10.356,,Emo_Nback_20180527,160,False,All,1.0.0.1180,0,0,"['2', 'num_2', 'right']",2.0.10.252,MRI,2.0.10.356,0,False,Stimuli/,Year 2,59.9383225917,1,
lure,All,PL_006_92025.bmp,52,Place,0-Back,No Match,5.0,0,56,56,56,,0,No Match,,,,,,,,,,,0,178940,180935,2000,178940,180935,0,180935,180935,500,181434,181435,,,,,,,,,,,"['1', 'num_1', 'left', '2', 'num_2', 'right']",Emo_Nback_20180527_v1-ABCD1234,1,1,Verdana,1,Right,ABCD1234,0,"['5', '7', '^', 'num_5', 'num_7', '=']",08/09/2018,1,17:24:02,Professional,0,2018-08-09_172402,2.0.10.356,,Emo_Nback_20180527,160,False,All,1.0.0.1180,0,0,"['2', 'num_2', 'right']",2.0.10.252,MRI,2.0.10.356,0,False,Stimuli/,Year 2,59.9383225917,1,
None,All,None,None,Faces,Cue2Back,,6.0,0,57,57,57,,0,,181935,181935,184436,184435,181441,181441,181935,2500,181935,500,,,,,,,,,,,,,,,,,,,,,,,"['1', 'num_1', 'left', '2', 'num_2', 'right']",Emo_Nback_20180527_v1-ABCD1234,1,1,Verdana,1,Right,ABCD1234,0,"['5', '7', '^', 'num_5', 'num_7', '=']",08/09/2018,1,17:24:02,Professional,0,2018-08-09_172402,2.0.10.356,,Emo_Nback_20180527,160,False,All,1.0.0.1180,0,0,"['2', 'num_2', 'right']",2.0.10.252,MRI,2.0.10.356,0,False,Stimuli/,Year 2,59.9383225917,1,
nonlure,All,AM228_NC.bmp,52,NeutFace,2-Back,No Match,6.0,0,58,58,58,,0,No Match,,,,,,,,,,,0,184444,186436,2000,184444,186436,0,186436,186436,500,186935,186936,,,,,,,,,,,"['1', 'num_1', 'left', '2', 'num_2', 'right']",Emo_Nback_20180527_v1-ABCD1234,1,1,Verdana,1,Right,ABCD1234,0,"['5', '7', '^', 'num_5', 'num_7', '=']",08/09/2018,1,17:24:02,Professional,0,2018-08-09_172402,2.0.10.356,,Emo_Nback_20180527,160,False,All,1.0.0.1180,0,0,"['2', 'num_2', 'right']",2.0.10.252,MRI,2.0.10.356,0,False,Stimuli/,Year 2,59.9383225917,1,
nonlure,All,26M_NC.bmp,53,NeutFace,2-Back,No Match,6.0,0,59,59,59,,0,No Match,,,,,,,,,,,0,186945,188935,2000,186946,188935,0,188935,188935,500,189436,189436,,,,,,,,,,,"['1', 'num_1', 'left', '2', 'num_2', 'right']",Emo_Nback_20180527_v1-ABCD1234,1,1,Verdana,1,Right,ABCD1234,0,"['5', '7', '^', 'num_5', 'num_7', '=']",08/09/2018,1,17:24:02,Professional,0,2018-08-09_172402,2.0.10.356,,Emo_Nback_20180527,160,False,All,1.0.0.1180,0,0,"['2', 'num_2', 'right']",2.0.10.252,MRI,2.0.10.356,0,False,Stimuli/,Year 2,59.9383225917,1,
target,All,AM228_NC.bmp,54,NeutFace,2-Back,Match,6.0,0,60,60,60,,0,Match,,,,,,,,,,,0,189441,191436,2000,189442,191436,0,191436,191436,500,191936,191936,,,,,,,,,,,"['1', 'num_1', 'left', '2', 'num_2', 'right']",Emo_Nback_20180527_v1-ABCD1234,1,1,Verdana,1,Right,ABCD1234,0,"['5', '7', '^', 'num_5', 'num_7', '=']",08/09/2018,1,17:24:02,Professional,0,2018-08-09_172402,2.0.10.356,,Emo_Nback_20180527,160,False,All,1.0.0.1180,0,0,"['2', 'num_2', 'right']",2.0.10.252,MRI,2.0.10.356,0,False,Stimuli/,Year 2,59.9383225917,1,
nonlure,All,LF227_NC.bmp,55,NeutFace,2-Back,No Match,6.0,0,61,61,61,,0,No Match,,,,,,,,,,,0,191945,193937,2000,191945,193937,0,193937,193937,500,194436,194436,,,,,,,,,,,"['1', 'num_1', 'left', '2', 'num_2', 'right']",Emo_Nback_20180527_v1-ABCD1234,1,1,Verdana,1,Right,ABCD1234,0,"['5', '7', '^', 'num_5', 'num_7', '=']",08/09/2018,1,17:24:02,Professional,0,2018-08-09_172402,2.0.10.356,,Emo_Nback_20180527,160,False,All,1.0.0.1180,0,0,"['2', 'num_2', 'right']",2.0.10.252,MRI,2.0.10.356,0,False,Stimuli/,Year 2,59.9383225917,1,
lure,All,26M_NC.bmp,56,NeutFace,2-Back,No Match,6.0,0,62,62,62,,0,No Match,,,,,,,,,,,0,194440,196437,2000,194440,196437,0,196437,196437,500,196937,196937,,,,,,,,,,,"['1', 'num_1', 'left', '2', 'num_2', 'right']",Emo_Nback_20180527_v1-ABCD1234,1,1,Verdana,1,Right,ABCD1234,0,"['5', '7', '^', 'num_5', 'num_7', '=']",08/09/2018,1,17:24:02,Professional,0,2018-08-09_172402,2.0.10.356,,Emo_Nback_20180527,160,False,All,1.0.0.1180,0,0,"['2', 'num_2', 'right']",2.0.10.252,MRI,2.0.10.356,0,False,Stimuli/,Year 2,59.9383225917,1,
target,All,LF227_NC.bmp,57,NeutFace,2-Back,Match,6.0,0,63,63,63,,0,Match,,,,,,,,,,,0,196942,198938,2000,196942,198938,0,198938,198938,500,199437,199437,,,,,,,,,,,"['1', 'num_1', 'left', '2', 'num_2', 'right']",Emo_Nback_20180527_v1-ABCD1234,1,1,Verdana,1,Right,ABCD1234,0,"['5', '7', '^', 'num_5', 'num_7', '=']",08/09/2018,1,17:24:02,Professional,0,2018-08-09_172402,2.0.10.356,,Emo_Nback_20180527,160,False,All,1.0.0.1180,0,0,"['2', 'num_2', 'right']",2.0.10.252,MRI,2.0.10.356,0,False,Stimuli/,Year 2,59.9383225917,1,
nonlure,All,AF206_NC.bmp,58,NeutFace,2-Back,No Match,6.0,0,64,64,64,,0,No Match,,,,,,,,,,,0,199446,201437,2000,199446,201437,0,201437,201437,500,201938,201938,,,,,,,,,,,"['1', 'num_1', 'left', '2', 'num_2', 'right']",Emo_Nback_20180527_v1-ABCD1234,1,1,Verdana,1,Right,ABCD1234,0,"['5', '7', '^', 'num_5', 'num_7', '=']",08/09/2018,1,17:24:02,Professional,0,2018-08-09_172402,2.0.10.356,,Emo_Nback_20180527,160,False,All,1.0.0.1180,0,0,"['2', 'num_2', 'right']",2.0.10.252,MRI,2.0.10.356,0,False,Stimuli/,Year 2,59.9383225917,1,
lure,All,AF206_NC.bmp,59,NeutFace,2-Back,No Match,6.0,0,65,65,65,,0,No Match,,,,,,,,,,,0,201943,203937,2000,201943,203937,0,203937,203938,500,204438,204438,,,,,,,,,,,"['1', 'num_1', 'left', '2', 'num_2', 'right']",Emo_Nback_20180527_v1-ABCD1234,1,1,Verdana,1,Right,ABCD1234,0,"['5', '7', '^', 'num_5', 'num_7', '=']",08/09/2018,1,17:24:02,Professional,0,2018-08-09_172402,2.0.10.356,,Emo_Nback_20180527,160,False,All,1.0.0.1180,0,0,"['2', 'num_2', 'right']",2.0.10.252,MRI,2.0.10.356,0,False,Stimuli/,Year 2,59.9383225917,1,
nonlure,All,BM03_NC.bmp,60,NeutFace,2-Back,No Match,6.0,0,66,66,66,,0,No Match,,,,,,,,,,,0,204445,206438,2000,204445,206438,0,206438,206438,500,206938,206938,,,,,,,,,,,"['1', 'num_1', 'left', '2', 'num_2', 'right']",Emo_Nback_20180527_v1-ABCD1234,1,1,Verdana,1,Right,ABCD1234,0,"['5', '7', '^', 'num_5', 'num_7', '=']",08/09/2018,1,17:24:02,Professional,0,2018-08-09_172402,2.0.10.356,,Emo_Nback_20180527,160,False,All,1.0.0.1180,0,0,"['2', 'num_2', 'right']",2.0.10.252,MRI,2.0.10.356,0,False,Stimuli/,Year 2,59.9383225917,1,
nonlure,All,WF012_NC.bmp,61,NeutFace,2-Back,No Match,6.0,0,67,67,67,,0,No Match,,,,,,,,,,,0,206948,208940,2000,206949,208940,0,208939,208940,500,209439,209439,,,,,,,,,,,"['1', 'num_1', 'left', '2', 'num_2', 'right']",Emo_Nback_20180527_v1-ABCD1234,1,1,Verdana,1,Right,ABCD1234,0,"['5', '7', '^', 'num_5', 'num_7', '=']",08/09/2018,1,17:24:02,Professional,0,2018-08-09_172402,2.0.10.356,,Emo_Nback_20180527,160,False,All,1.0.0.1180,0,0,"['2', 'num_2', 'right']",2.0.10.252,MRI,2.0.10.356,0,False,Stimuli/,Year 2,59.9383225917,1,
None,All,None,None,None,Fix15secPROC,,None,0,68,68,68,,0,,,,,,,,,,,,,,,,,,,,,,,,,,,,,209441,15000,224441,209441,224441,"['1', 'num_1', 'left', '2', 'num_2', 'right']",Emo_Nback_20180527_v1-ABCD1234,1,1,Verdana,1,Right,ABCD1234,0,"['5', '7', '^', 'num_5', 'num_7', '=']",08/09/2018,1,17:24:02,Professional,0,2018-08-09_172402,2.0.10.356,,Emo_Nback_20180527,160,False,All,1.0.0.1180,0,0,"['2', 'num_2', 'right']",2.0.10.252,MRI,2.0.10.356,0,False,Stimuli/,Year 2,59.9383225917,1,
target,All,39M_FO.bmp,None,Faces,Cue0Back,,7.0,0,69,69,69,,0,,224941,,,,224449,224449,224941,,,500,,,,,,,,,,,,,224941,227442,224941,227442,2500,,,,,,"['1', 'num_1', 'left', '2', 'num_2', 'right']",Emo_Nback_20180527_v1-ABCD1234,1,1,Verdana,1,Right,ABCD1234,0,"['5', '7', '^', 'num_5', 'num_7', '=']",08/09/2018,1,17:24:02,Professional,0,2018-08-09_172402,2.0.10.356,,Emo_Nback_20180527,160,False,All,1.0.0.1180,0,0,"['2', 'num_2', 'right']",2.0.10.252,MRI,2.0.10.356,0,False,Stimuli/,Year 2,59.9383225917,1,
nonlure,All,BF003_FO.bmp,62,NegFace,0-Back,No Match,7.0,0,70,70,70,,0,No Match,,,,,,,,,,,0,227450,229425,2000,227451,229425,0,229425,229425,500,229941,229941,,,,,,,,,,,"['1', 'num_1', 'left', '2', 'num_2', 'right']",Emo_Nback_20180527_v1-ABCD1234,1,1,Verdana,1,Right,ABCD1234,0,"['5', '7', '^', 'num_5', 'num_7', '=']",08/09/2018,1,17:24:02,Professional,0,2018-08-09_172402,2.0.10.356,,Emo_Nback_20180527,160,False,All,1.0.0.1180,0,0,"['2', 'num_2', 'right']",2.0.10.252,MRI,2.0.10.356,0,False,Stimuli/,Year 2,59.9383225917,1,
nonlure,All,HM05_FO.bmp,63,NegFace,0-Back,No Match,7.0,0,71,71,71,,0,No Match,,,,,,,,,,,0,229951,231942,2000,229952,231942,0,231942,231942,500,232441,232441,,,,,,,,,,,"['1', 'num_1', 'left', '2', 'num_2', 'right']",Emo_Nback_20180527_v1-ABCD1234,1,1,Verdana,1,Right,ABCD1234,0,"['5', '7', '^', 'num_5', 'num_7', '=']",08/09/2018,1,17:24:02,Professional,0,2018-08-09_172402,2.0.10.356,,Emo_Nback_20180527,160,False,All,1.0.0.1180,0,0,"['2', 'num_2', 'right']",2.0.10.252,MRI,2.0.10.356,0,False,Stimuli/,Year 2,59.9383225917,1,
lure,All,HM05_FO.bmp,64,NegFace,0-Back,No Match,7.0,0,72,72,72,,0,No Match,,,,,,,,,,,0,232447,234425,2000,232447,234425,0,234425,234425,500,234925,234925,,,,,,,,,,,"['1', 'num_1', 'left', '2', 'num_2', 'right']",Emo_Nback_20180527_v1-ABCD1234,1,1,Verdana,1,Right,ABCD1234,0,"['5', '7', '^', 'num_5', 'num_7', '=']",08/09/2018,1,17:24:02,Professional,0,2018-08-09_172402,2.0.10.356,,Emo_Nback_20180527,160,False,All,1.0.0.1180,0,0,"['2', 'num_2', 'right']",2.0.10.252,MRI,2.0.10.356,0,False,Stimuli/,Year 2,59.9383225917,1,
nonlure,All,10F_FO.bmp,65,NegFace,0-Back,No Match,7.0,0,73,73,73,,0,No Match,,,,,,,,,,,0,234935,236926,2000,234936,236926,0,236926,236926,500,237426,237426,,,,,,,,,,,"['1', 'num_1', 'left', '2', 'num_2', 'right']",Emo_Nback_20180527_v1-ABCD1234,1,1,Verdana,1,Right,ABCD1234,0,"['5', '7', '^', 'num_5', 'num_7', '=']",08/09/2018,1,17:24:02,Professional,0,2018-08-09_172402,2.0.10.356,,Emo_Nback_20180527,160,False,All,1.0.0.1180,0,0,"['2', 'num_2', 'right']",2.0.10.252,MRI,2.0.10.356,0,False,Stimuli/,Year 2,59.9383225917,1,
nonlure,All,BF09_FO.bmp,66,NegFace,0-Back,No Match,7.0,0,74,74,74,,0,No Match,,,,,,,,,,,0,237436,239426,2000,237436,239426,0,239426,239426,500,239926,239926,,,,,,,,,,,"['1', 'num_1', 'left', '2', 'num_2', 'right']",Emo_Nback_20180527_v1-ABCD1234,1,1,Verdana,1,Right,ABCD1234,0,"['5', '7', '^', 'num_5', 'num_7', '=']",08/09/2018,1,17:24:02,Professional,0,2018-08-09_172402,2.0.10.356,,Emo_Nback_20180527,160,False,All,1.0.0.1180,0,0,"['2', 'num_2', 'right']",2.0.10.252,MRI,2.0.10.356,0,False,Stimuli/,Year 2,59.9383225917,1,
nonlure,All,28M_FO.bmp,67,NegFace,0-Back,No Match,7.0,0,75,75,75,,0,No Match,,,,,,,,,,,0,239936,241926,2000,239936,241926,0,241926,241926,500,242426,242426,,,,,,,,,,,"['1', 'num_1', 'left', '2', 'num_2', 'right']",Emo_Nback_20180527_v1-ABCD1234,1,1,Verdana,1,Right,ABCD1234,0,"['5', '7', '^', 'num_5', 'num_7', '=']",08/09/2018,1,17:24:02,Professional,0,2018-08-09_172402,2.0.10.356,,Emo_Nback_20180527,160,False,All,1.0.0.1180,0,0,"['2', 'num_2', 'right']",2.0.10.252,MRI,2.0.10.356,0,False,Stimuli/,Year 2,59.9383225917,1,
lure,All,BF003_FO.bmp,68,NegFace,0-Back,No Match,7.0,0,76,76,76,,0,No Match,,,,,,,,,,,0,242432,244427,2000,242432,244427,0,244427,244427,500,244927,244927,,,,,,,,,,,"['1', 'num_1', 'left', '2', 'num_2', 'right']",Emo_Nback_20180527_v1-ABCD1234,1,1,Verdana,1,Right,ABCD1234,0,"['5', '7', '^', 'num_5', 'num_7', '=']",08/09/2018,1,17:24:02,Professional,0,2018-08-09_172402,2.0.10.356,,Emo_Nback_20180527,160,False,All,1.0.0.1180,0,0,"['2', 'num_2', 'right']",2.0.10.252,MRI,2.0.10.356,0,False,Stimuli/,Year 2,59.9383225917,1,
target,All,39M_FO.bmp,69,NegFace,0-Back,Match,7.0,0,77,77,77,,0,Match,,,,,,,,,,,0,244932,246927,2000,244932,246927,0,246927,246927,500,247427,247427,,,,,,,,,,,"['1', 'num_1', 'left', '2', 'num_2', 'right']",Emo_Nback_20180527_v1-ABCD1234,1,1,Verdana,1,Right,ABCD1234,0,"['5', '7', '^', 'num_5', 'num_7', '=']",08/09/2018,1,17:24:02,Professional,0,2018-08-09_172402,2.0.10.356,,Emo_Nback_20180527,160,False,All,1.0.0.1180,0,0,"['2', 'num_2', 'right']",2.0.10.252,MRI,2.0.10.356,0,False,Stimuli/,Year 2,59.9383225917,1,
lure,All,10F_FO.bmp,70,NegFace,0-Back,No Match,7.0,0,78,78,78,,0,No Match,,,,,,,,,,,0,247432,249428,2000,247432,249428,0,249428,249428,500,249927,249927,,,,,,,,,,,"['1', 'num_1', 'left', '2', 'num_2', 'right']",Emo_Nback_20180527_v1-ABCD1234,1,1,Verdana,1,Right,ABCD1234,0,"['5', '7', '^', 'num_5', 'num_7', '=']",08/09/2018,1,17:24:02,Professional,0,2018-08-09_172402,2.0.10.356,,Emo_Nback_20180527,160,False,All,1.0.0.1180,0,0,"['2', 'num_2', 'right']",2.0.10.252,MRI,2.0.10.356,0,False,Stimuli/,Year 2,59.9383225917,1,
target,All,39M_FO.bmp,71,NegFace,0-Back,Match,7.0,0,79,79,79,,0,Match,,,,,,,,,,,0,249932,251928,2000,249933,251928,0,251928,251928,500,252428,252428,,,,,,,,,,,"['1', 'num_1', 'left', '2', 'num_2', 'right']",Emo_Nback_20180527_v1-ABCD1234,1,1,Verdana,1,Right,ABCD1234,0,"['5', '7', '^', 'num_5', 'num_7', '=']",08/09/2018,1,17:24:02,Professional,0,2018-08-09_172402,2.0.10.356,,Emo_Nback_20180527,160,False,All,1.0.0.1180,0,0,"['2', 'num_2', 'right']",2.0.10.252,MRI,2.0.10.356,0,False,Stimuli/,Year 2,59.9383225917,1,
None,All,None,None,Faces,Cue2Back,,8.0,0,80,80,80,,0,,252928,252928,255428,255428,252434,252434,252928,2500,252928,500,,,,,,,,,,,,,,,,,,,,,,,"['1', 'num_1', 'left', '2', 'num_2', 'right']",Emo_Nback_20180527_v1-ABCD1234,1,1,Verdana,1,Right,ABCD1234,0,"['5', '7', '^', 'num_5', 'num_7', '=']",08/09/2018,1,17:24:02,Professional,0,2018-08-09_172402,2.0.10.356,,Emo_Nback_20180527,160,False,All,1.0.0.1180,0,0,"['2', 'num_2', 'right']",2.0.10.252,MRI,2.0.10.356,0,False,Stimuli/,Year 2,59.9383225917,1,
nonlure,All,PL_007_92026.bmp,72,Place,2-Back,No Match,8.0,0,81,81,81,,0,No Match,,,,,,,,,,,0,255438,257428,2000,255439,257428,0,257428,257428,500,257928,257928,,,,,,,,,,,"['1', 'num_1', 'left', '2', 'num_2', 'right']",Emo_Nback_20180527_v1-ABCD1234,1,1,Verdana,1,Right,ABCD1234,0,"['5', '7', '^', 'num_5', 'num_7', '=']",08/09/2018,1,17:24:02,Professional,0,2018-08-09_172402,2.0.10.356,,Emo_Nback_20180527,160,False,All,1.0.0.1180,0,0,"['2', 'num_2', 'right']",2.0.10.252,MRI,2.0.10.356,0,False,Stimuli/,Year 2,59.9383225917,1,
lure,All,PL_007_92026.bmp,73,Place,2-Back,No Match,8.0,0,82,82,82,,0,No Match,,,,,,,,,,,0,257933,259928,2000,257934,259928,0,259928,259928,500,260429,260429,,,,,,,,,,,"['1', 'num_1', 'left', '2', 'num_2', 'right']",Emo_Nback_20180527_v1-ABCD1234,1,1,Verdana,1,Right,ABCD1234,0,"['5', '7', '^', 'num_5', 'num_7', '=']",08/09/2018,1,17:24:02,Professional,0,2018-08-09_172402,2.0.10.356,,Emo_Nback_20180527,160,False,All,1.0.0.1180,0,0,"['2', 'num_2', 'right']",2.0.10.252,MRI,2.0.10.356,0,False,Stimuli/,Year 2,59.9383225917,1,
nonlure,All,PL_010_92038.bmp,74,Place,2-Back,No Match,8.0,0,83,83,83,,0,No Match,,,,,,,,,,,0,260439,262429,2000,260439,262429,0,262428,262429,500,262929,262929,,,,,,,,,,,"['1', 'num_1', 'left', '2', 'num_2', 'right']",Emo_Nback_20180527_v1-ABCD1234,1,1,Verdana,1,Right,ABCD1234,0,"['5', '7', '^', 'num_5', 'num_7', '=']",08/09/2018,1,17:24:02,Professional,0,2018-08-09_172402,2.0.10.356,,Emo_Nback_20180527,160,False,All,1.0.0.1180,0,0,"['2', 'num_2', 'right']",2.0.10.252,MRI,2.0.10.356,0,False,Stimuli/,Year 2,59.9383225917,1,
nonlure,All,PL_009_92037.bmp,75,Place,2-Back,No Match,8.0,0,84,84,84,,0,No Match,,,,,,,,,,,0,262939,264929,2000,262940,264929,0,264929,264929,500,265429,265429,,,,,,,,,,,"['1', 'num_1', 'left', '2', 'num_2', 'right']",Emo_Nback_20180527_v1-ABCD1234,1,1,Verdana,1,Right,ABCD1234,0,"['5', '7', '^', 'num_5', 'num_7', '=']",08/09/2018,1,17:24:02,Professional,0,2018-08-09_172402,2.0.10.356,,Emo_Nback_20180527,160,False,All,1.0.0.1180,0,0,"['2', 'num_2', 'right']",2.0.10.252,MRI,2.0.10.356,0,False,Stimuli/,Year 2,59.9383225917,1,
target,All,PL_010_92038.bmp,76,Place,2-Back,Match,8.0,0,85,85,85,,0,Match,,,,,,,,,,,0,265433,267429,2000,265433,267429,0,267429,267429,500,267930,267930,,,,,,,,,,,"['1', 'num_1', 'left', '2', 'num_2', 'right']",Emo_Nback_20180527_v1-ABCD1234,1,1,Verdana,1,Right,ABCD1234,0,"['5', '7', '^', 'num_5', 'num_7', '=']",08/09/2018,1,17:24:02,Professional,0,2018-08-09_172402,2.0.10.356,,Emo_Nback_20180527,160,False,All,1.0.0.1180,0,0,"['2', 'num_2', 'right']",2.0.10.252,MRI,2.0.10.356,0,False,Stimuli/,Year 2,59.9383225917,1,
target,All,PL_009_92037.bmp,77,Place,2-Back,Match,8.0,0,86,86,86,,0,Match,,,,,,,,,,,0,267935,269931,2000,267935,269931,0,269931,269931,500,270430,270430,,,,,,,,,,,"['1', 'num_1', 'left', '2', 'num_2', 'right']",Emo_Nback_20180527_v1-ABCD1234,1,1,Verdana,1,Right,ABCD1234,0,"['5', '7', '^', 'num_5', 'num_7', '=']",08/09/2018,1,17:24:02,Professional,0,2018-08-09_172402,2.0.10.356,,Emo_Nback_20180527,160,False,All,1.0.0.1180,0,0,"['2', 'num_2', 'right']",2.0.10.252,MRI,2.0.10.356,0,False,Stimuli/,Year 2,59.9383225917,1,
nonlure,All,PL_008_92033.bmp,78,Place,2-Back,No Match,8.0,0,87,87,87,,0,No Match,,,,,,,,,,,0,270440,272431,2000,270441,272431,0,272431,272431,500,272930,272930,,,,,,,,,,,"['1', 'num_1', 'left', '2', 'num_2', 'right']",Emo_Nback_20180527_v1-ABCD1234,1,1,Verdana,1,Right,ABCD1234,0,"['5', '7', '^', 'num_5', 'num_7', '=']",08/09/2018,1,17:24:02,Professional,0,2018-08-09_172402,2.0.10.356,,Emo_Nback_20180527,160,False,All,1.0.0.1180,0,0,"['2', 'num_2', 'right']",2.0.10.252,MRI,2.0.10.356,0,False,Stimuli/,Year 2,59.9383225917,1,
nonlure,All,PL_012_92047.bmp,79,Place,2-Back,No Match,8.0,0,88,88,88,,0,No Match,,,,,,,,,,,0,272939,274930,2000,272939,274930,0,274930,274930,500,275431,275431,,,,,,,,,,,"['1', 'num_1', 'left', '2', 'num_2', 'right']",Emo_Nback_20180527_v1-ABCD1234,1,1,Verdana,1,Right,ABCD1234,0,"['5', '7', '^', 'num_5', 'num_7', '=']",08/09/2018,1,17:24:02,Professional,0,2018-08-09_172402,2.0.10.356,,Emo_Nback_20180527,160,False,All,1.0.0.1180,0,0,"['2', 'num_2', 'right']",2.0.10.252,MRI,2.0.10.356,0,False,Stimuli/,Year 2,59.9383225917,1,
lure,All,PL_012_92047.bmp,80,Place,2-Back,No Match,8.0,0,89,89,89,,0,No Match,,,,,,,,,,,0,275436,277431,2000,275436,277431,0,277431,277431,500,277931,277931,,,,,,,,,,,"['1', 'num_1', 'left', '2', 'num_2', 'right']",Emo_Nback_20180527_v1-ABCD1234,1,1,Verdana,1,Right,ABCD1234,0,"['5', '7', '^', 'num_5', 'num_7', '=']",08/09/2018,1,17:24:02,Professional,0,2018-08-09_172402,2.0.10.356,,Emo_Nback_20180527,160,False,All,1.0.0.1180,0,0,"['2', 'num_2', 'right']",2.0.10.252,MRI,2.0.10.356,0,False,Stimuli/,Year 2,59.9383225917,1,
nonlure,All,PL_011_92044.bmp,81,Place,2-Back,No Match,8.0,0,90,90,90,,0,No Match,,,,,,,,,,,0,277941,279932,2000,277941,279932,0,279932,279932,500,280431,280431,,,,,,,,,,,"['1', 'num_1', 'left', '2', 'num_2', 'right']",Emo_Nback_20180527_v1-ABCD1234,1,1,Verdana,1,Right,ABCD1234,0,"['5', '7', '^', 'num_5', 'num_7', '=']",08/09/2018,1,17:24:02,Professional,0,2018-08-09_172402,2.0.10.356,,Emo_Nback_20180527,160,False,All,1.0.0.1180,0,0,"['2', 'num_2', 'right']",2.0.10.252,MRI,2.0.10.356,0,False,Stimuli/,Year 2,59.9383225917,1,
None,All,None,None,None,Fix15secPROC,,None,0,91,91,91,,0,,,,,,,,,,,,,,,,,,,,,,,,,,,,,280434,15000,295434,280434,295433,"['1', 'num_1', 'left', '2', 'num_2', 'right']",Emo_Nback_20180527_v1-ABCD1234,1,1,Verdana,1,Right,ABCD1234,0,"['5', '7', '^', 'num_5', 'num_7', '=']",08/09/2018,1,17:24:02,Professional,0,2018-08-09_172402,2.0.10.356,,Emo_Nback_20180527,160,False,All,1.0.0.1180,0,0,"['2', 'num_2', 'right']",2.0.10.252,MRI,2.0.10.356,0,False,Stimuli/,Year 2,59.9383225917,1,
"",All,"","",Faces,Cue2Back,"","",0,0,0,0,,0,"",309669,309669,312169,312169,309159,309159,309669,2500,309669,500,,,,,,,,,,,,,,,,,,,,,,,"['1', 'num_1', 'left', '2', 'num_2', 'right']",Emo_Nback_20180527_v1-ABCD1234,1,1,Verdana,1,Right,ABCD1234,0,"['5', '7', '^', 'num_5', 'num_7', '=']",08/09/2018,1,17:24:02,Professional,0,2018-08-09_172402,2.0.10.356,,Emo_Nback_20180527,160,False,All,1.0.0.1180,0,0,"['2', 'num_2', 'right']",2.0.10.252,MRI,2.0.10.356,0,False,Stimuli/,Year 2,59.9383225917,1,
nonlure,All,16F_FO.bmp,82,NegFace,2-Back,No Match,1,0,1,1,1,escape,,No Match,,,,,,,,,,,0,312179,314169,2000,312180,314169,313622,314169,314169,500,314669,314669,,,,,,,,,,,"['1', 'num_1', 'left', '2', 'num_2', 'right']",Emo_Nback_20180527_v1-ABCD1234,1,1,Verdana,1,Right,ABCD1234,0,"['5', '7', '^', 'num_5', 'num_7', '=']",08/09/2018,1,17:24:02,Professional,0,2018-08-09_172402,2.0.10.356,,Emo_Nback_20180527,160,False,All,1.0.0.1180,0,0,"['2', 'num_2', 'right']",2.0.10.252,MRI,2.0.10.356,0,False,Stimuli/,Year 2,59.9383225917,1,
